timestamp,ax,ay,az,gx,gy,gz,mx,my,mz,pressure
0.0,0.28021388456265184,0.2573465039645186,9.855707561963165,-0.011325898311620126,0.040960980402929836,0.011061535740504898,20.624511348436748,-5.121764020862431,-39.873397744852326,1013.2202388651214
0.02,0.29430132179759355,0.14630632901694707,10.40007204555849,-5.75738060608396e-05,0.03511160383402283,0.006234082364086859,20.34384609255889,-4.338932052960762,-39.55239079888691,1013.2715121880595
0.04,0.18092270434575292,0.11997262739454587,11.367828701676116,0.050590618282582545,0.05249553047119532,0.022680031790382867,20.983063735687796,-4.682078330867034,-39.86333937173156,1013.2234466620323
0.06,0.13481948833069504,0.15685327496248855,12.004726025244747,0.04083315420876627,0.041485519676970686,0.013436695076682931,19.226083583630043,-5.595241877344177,-38.88058416679279,1013.2653388738006
0.08,0.002904070331538333,0.019931293427436273,12.05032849820797,0.037981720224212874,-0.0013044912032567184,0.029328301492319825,19.867319945842873,-4.919237673923076,-39.28510627376479,1013.2351791835202
0.1,0.24048482511840505,-0.02141085940614971,12.467842622856114,0.057527214636152145,0.037904414810022144,0.02456881342043866,19.768739308028586,-4.17594391908806,-40.15376388235851,1013.2810314275579
0.12,0.5138277707688589,-0.0600047668279267,12.823256245759907,0.007757489474819822,0.00125563446944901,0.03779650010843273,19.0131586617957,-5.090615517273351,-40.15901371690354,1013.2637910107785
0.14,0.27514925944749735,-0.22809699679451184,12.709425363334528,0.048251690743616286,-0.031587687633600654,0.01569150750942654,20.530163602389848,-4.776142484952466,-39.76515164025732,1013.2284390425825
0.16,0.12102206437077398,-0.16661128717613516,12.521960983772415,0.08519163617939624,0.0024867177088238428,0.027740261511913403,19.86480172209832,-4.727060581130427,-40.419009590212845,1013.2300583489557
0.18,0.15768551473836973,-0.24075451096020803,11.993583139191331,0.04117259226684292,-0.019357688055511413,0.004573994437864225,20.369815602493283,-5.5183114495823,-39.41685584673375,1013.2603105041045
0.2,-0.11770583151543076,-0.4210148490012504,11.705265453106845,0.030747525998010374,-0.06574168955770565,-0.0002735111853306542,21.179885967164807,-4.744646025393243,-39.81919973907821,1013.2427524373859
0.22,-0.06654200761638276,-0.15350270360603238,11.031042448368378,0.029368795227077832,-0.010945167489258084,0.04688383260335326,19.823378154086196,-5.696917576017313,-39.87177054457074,1013.2444131498596
0.24,-0.09974871214846856,-0.32929962865826196,10.195904305327096,0.02417876654450214,-0.03642978769840004,0.018015035645027534,19.789423508671423,-5.312812053200698,-39.65652316611459,1013.2730447772354
0.26,-0.1843006807529673,-0.4086819167971449,9.603086480352292,-0.046215995536012404,-0.04980965737822482,0.030676983865675814,20.059332084862,-4.462138516252904,-39.13858505831547,1013.2324262225326
0.28,-0.15156487200147156,-0.29634456651671714,8.775752743283773,-0.052052757270054456,-0.014684448181976971,0.01788506514374359,20.493623676491705,-4.821621854845821,-39.91452232390625,1013.2490258754435
0.3,-0.23664352612130582,-0.23055849967957903,7.9177503736900965,-0.02518343679290072,-0.037264894042154564,0.004450026869099661,19.716643487344925,-5.152238903873264,-40.056520185435694,1013.266092555873
0.32,-0.22770329574024273,-0.05177920358862179,7.553772889285007,-0.052823193376739665,-0.03243286098951512,0.01710621636168833,19.684519201433936,-4.776769489377406,-39.24564018833871,1013.2629823497678
0.34,-0.3682942009098594,-0.009342835910434426,6.951686452477592,-0.01900084737890271,-0.034494966898693386,0.046246013956231555,20.528594635120683,-5.030046123877566,-39.51622479200443,1013.2434077466495
0.36,-0.1957805240618526,0.0582641092779759,6.994905793010025,-0.055417850334138916,0.0022679430568553396,0.029201342534908872,20.18931966191902,-4.993710748824084,-40.160489920191864,1013.2406218823829
0.38,-0.09083054759497225,0.22204520659097088,6.808430928067248,-0.08859195113567594,0.012671585322945239,-0.015633933476844157,18.97763586849759,-4.671590736639931,-39.99740677567049,1013.2114236907496
0.4,-0.3029589444971731,0.2521321485669914,6.929101096582751,-0.07291310415163763,0.01574445251654159,0.014716241194379979,19.387304100265446,-5.363683870329566,-39.9023095420306,1013.2248751001467
0.42,-0.23399308981833802,0.29411217363729303,7.174876791833363,-0.09720991666771228,0.010991612671597744,0.05501753907666686,20.750617931913606,-4.979831797222655,-39.81909352769751,1013.2521671845316
0.44,0.05820030579348452,0.3313587018978695,7.939739883015038,-0.0389098660420927,0.039047028454392035,0.01536980777757465,20.200964141539405,-5.156134097303326,-40.67829992546956,1013.2428423562211
0.46,-0.019930845106243857,0.3616124095868167,8.341559555384533,-0.027855366250373433,0.042419358286950426,-0.016167279808394053,19.618902034481376,-5.792801687300128,-40.77124230390078,1013.2468985415713
0.48,0.21421741783046389,0.07997665833622636,8.999681165180968,-0.020923748553880725,0.02175967168174753,0.057821512277016304,19.914795171382508,-5.46022787812465,-40.443695011001225,1013.2659850721926
0.5,0.09957409039204246,0.22683094334066572,9.757179967426765,0.02157758078059476,0.02056375297351629,0.03364785019625585,20.006618336400834,-4.2158967764680835,-40.48236922150567,1013.2212535378187
0.52,0.3502873812274961,0.0012140162053658199,10.635916039327567,0.03640489108857661,0.059732225632626944,0.018560277392309425,20.367866680140082,-4.807638342707383,-40.32191200698625,1013.2400763939554
0.54,0.2660193093547773,0.16502592665791113,11.310077631959759,0.02067991523796356,-0.008222432298840607,0.012413939304648184,19.320868302570606,-5.661794150700695,-39.682644678955,1013.2483742192683
0.56,0.31089271626705434,0.09299893996667953,11.925551209525468,-0.008466518053102653,0.04055664191029575,0.04129278361040848,19.57952543066477,-5.770177187924205,-40.08446457816237,1013.2303168012486
0.58,0.4558287562826938,0.12418519178640894,12.407606926957229,0.05456202788494591,0.017229678593873372,0.008531995218048774,20.136477877431695,-5.056081950055292,-39.90180269749491,1013.2728295422785
0.6,0.2586573281672514,0.06333158217912865,12.984416689016031,0.05866003038492919,0.04161578185634559,0.04198625881622284,19.950082709752277,-4.219406733411759,-40.612151705021134,1013.2621717360323
0.62,0.17767405995162272,-0.10673518622290898,12.743117932827122,0.056089167824552484,-0.006729838206611849,0.02943943543225015,20.285929591318354,-5.093379067402176,-40.23082110146047,1013.2496026665417
0.64,0.18680441149829713,-0.24064895824444094,12.680025342825335,0.06874395752259675,0.0038206185557516682,0.02299017955906739,19.3852463013202,-4.346500223297992,-39.70637116912758,1013.2794846355866
0.66,0.22221268804003663,-0.19371999228454212,12.402415248160876,0.021944790694080164,-0.029227241403009502,0.020436429707589177,20.17856433813566,-4.824034614590671,-39.7025237709116,1013.2134220944077
0.68,-0.04539841342971268,-0.33143053503847897,12.21393664171369,0.07870076986249222,-0.02959623641771166,0.013387197775756738,20.545791809688737,-4.764374771077053,-40.36228691409396,1013.2430454743779
0.7,0.10213709404912574,-0.2976728054544374,11.742701600785555,0.010200707551786311,-0.02571411910034634,0.03709314229168426,20.243409273574642,-5.667860254652284,-39.91916880681023,1013.2503267393787
0.72,-0.0906868031083936,-0.19911955102858003,10.897281539405803,0.03339068617825099,-0.05573993862090418,-0.0018965917865208983,20.069555869880794,-4.5312385391251215,-38.90057607325883,1013.2245088990641
0.74,0.005084806623313787,-0.33500228888151257,10.059976229148534,-0.027480292210051837,-0.029674637375755816,-0.01785912998817596,19.952058198717015,-5.167466018636803,-40.00879896462782,1013.2486142908364
0.76,-0.41511664606090937,-0.16260451855437663,9.310328116953404,-0.024871955423616178,-0.06947969260785357,0.02597974457642327,19.58257442361425,-4.568453773194546,-40.34659347307122,1013.2202683501242
0.78,-0.3093020616808963,-0.12410005868885692,8.803215260119675,0.01192114530027286,-0.04059696744324501,0.025373246356316752,19.964000703780105,-5.407084990993057,-40.08688119468108,1013.2560111463655
0.8,-0.4397548638683212,-0.22393316532482904,8.158132368803098,-0.03460725907464064,-0.02199805526299033,0.021360528096084797,20.629852926440204,-4.911475326245044,-39.95391144623658,1013.2631566953626
0.82,-0.3771588441874375,0.04039287736736437,7.579933411918415,-0.021727210036133447,-0.018670449651627855,0.018871103291940715,19.940485746699938,-4.823998523031184,-40.075584190345275,1013.2472466680226
0.84,-0.27469038257588924,0.0878988491813392,6.99569238650864,-0.04050224484891603,0.017039932956454507,0.0032242659152833556,19.555098005325796,-5.077016658287933,-40.01567735033825,1013.2045440436987
0.86,-0.303484727447883,0.1021398947793006,6.897962446273943,-0.05121352565643788,-0.024637852075499497,0.02426523991901196,19.753876455617306,-4.797727403456921,-40.72172339846842,1013.2220641295767
0.88,-0.2790619992521729,0.08384266423995768,6.833422686086295,-0.022624329922759787,-0.024443459050506128,0.006451328518602746,20.100425148637964,-5.133198537596255,-40.48131523754297,1013.2524942000643
0.9,-0.221862479670038,0.13222401059016398,6.9896337406238915,-0.0522860023077957,-0.004435852451155039,-0.003561931328804612,19.813243001409578,-5.324529876520639,-40.07466761853575,1013.2414239728703
0.92,-0.12488470018488752,0.2087411288825622,7.407730540186184,-0.07783115842637017,0.04000019107991857,-0.0012640285018109014,20.24265164153157,-4.1972583086030175,-40.08263398501122,1013.1869199476462
0.94,-0.17623173203284986,0.34463530249419616,7.7898980145301335,-0.0502921571354686,0.046406890056458094,0.044160420267231146,20.261421880374517,-4.4755235668192785,-40.28309463743,1013.2654566076774
0.96,0.06988851765316692,0.20443642604645304,8.466576012155636,-0.013063849131051934,0.04586046719514147,-0.03219285696962257,20.444491590202325,-5.380432372524089,-40.08850679303822,1013.2431331301251
0.98,0.1401018756623565,0.3345232173759577,9.074067198928768,-0.0045243122309926165,0.025970017074288955,0.011251572476502249,20.711779736132517,-4.715777847202694,-39.9694925722929,1013.2238185067199
1.0,0.18233145534687087,0.13909921567927264,9.853367909803497,-0.03134116500470879,0.06533734586658121,-0.033582208552474346,20.49792936218618,-5.371339427350576,-39.55529327173774,1013.2598991119513
1.02,0.26043616787555124,0.19882816421042834,10.650762895370345,-0.0020523560299212876,0.023935062503420753,-0.0034204771570457313,19.53288046792602,-5.592342321831162,-40.049605867613025,1013.2262491997418
1.04,0.28251252775509794,0.17238470943553252,11.036687649326797,0.012453256721040841,0.06699432564973118,-0.01117921437436984,19.548232776711863,-4.483095279300512,-39.80044839735088,1013.2258309576479
1.06,0.4885771642078915,0.3379752516950058,11.815690635332471,0.026917963414149954,0.09359719983386786,-0.04544819222531205,19.962114261770086,-5.852049812823703,-40.27080015071696,1013.2465670530203
1.08,0.2906475370104525,-0.1180996012445963,12.272427878362128,0.014698124503069749,0.03412036268038081,0.00280695406537816,19.774412321380293,-4.53657204321173,-39.71395213820076,1013.2748207691849
1.1,0.2641260540782107,0.09176959955602948,12.567337871648961,0.03498540365236813,0.027113012431902173,-0.013781101131342871,19.43083663651953,-5.12636115628653,-39.812134851193825,1013.2714717435595
1.12,0.1964335115083806,-0.11202844964941813,12.762808847600814,0.03532912671622304,-0.006717669401445598,-0.04934661790491845,19.779154102913502,-5.105773301540264,-39.56709149841009,1013.245994229978
1.14,0.12843456524334929,-0.14949565870315415,12.981102948871227,0.06454502773167284,-0.04557333215102248,0.008275775984183597,19.76274353319048,-4.795124390188355,-39.643269768777756,1013.2478477131771
1.16,0.052532114215615724,-0.23040131220029508,12.394606490044074,0.06142377884310588,-0.033343351838858025,0.0190650500777444,19.664076130119398,-4.709400594002874,-39.70563218855943,1013.2542299786417
1.18,0.022297762465247492,-0.23416608948652406,12.266781481516093,0.03560945297701318,-0.05372910430940944,0.01908595094635151,19.842105256922498,-5.413171588414454,-40.04920870432889,1013.2130603264926
1.2,0.03132196561880655,-0.31290205074630434,11.32092529113505,0.02154846669720905,-0.06939094124704767,-0.004576576232820038,20.589225425159164,-4.641137195624968,-39.877530386477765,1013.2508829667431
1.22,-0.0033801584968477516,-0.152328164578911,10.86414090355617,0.021204713875016178,-0.012041625454499584,-0.011827317023431483,20.09961902062462,-4.943314730987388,-39.46824553577424,1013.2231185306371
1.24,-0.10458225359482634,-0.3248722687050425,10.210412660458664,-0.010064840470896291,-0.044148484705208435,0.012872190299342163,21.235904538027736,-5.628027396434019,-40.3260372847014,1013.243969561336
1.26,-0.2522441433138334,-0.129948925260702,9.521933649010984,-0.029203303321563966,-0.04201198345344423,0.01906829915837374,20.085254093009823,-5.08493724178987,-40.314203889348434,1013.2328506474478
1.28,-0.14062702776848335,-0.2562769075793891,8.812310328914894,-0.037210651812748276,-0.05266927159833755,0.007261109201996711,19.854967113031375,-4.309360492220537,-39.90928430102482,1013.2472241665423
1.3,-0.19716678151481626,-0.13447916825187567,8.165646328402572,-0.04208552589405276,-0.04390827136761612,-0.03501109193209497,20.002066441327432,-4.161702600877152,-39.792360154867275,1013.2393620693001
1.32,-0.31050072829324415,-0.1641927906833967,7.446151510835365,-0.06179513813463493,-0.012580185842647761,-0.01285966144574187,20.12824598922177,-4.641325771195661,-40.412053249632,1013.1753393945836
1.34,-0.3647485871532547,0.06354458667894114,7.0261660737022575,-0.042000161442043486,-0.021935706952157942,-0.0087358107150487,20.217626978585532,-5.595171744084185,-40.03738128170665,1013.240177834234
1.36,-0.2307192728199273,0.23645990173468917,6.991834630002506,-0.03452004906076028,0.0012448130312085297,-0.054288880427664984,21.03835566292951,-4.754696548772056,-40.04699938711439,1013.249243059046
1.38,-0.2349268836087613,0.15233939206063699,6.787224165982943,-0.08164330243737843,-0.0007805599804347882,-0.009208316525349541,19.577339767511216,-4.574569548070404,-41.10764005780174,1013.2451185669668
1.4,-0.35075671847353673,0.19845604257732996,6.765477502613852,-0.04705025159043703,0.008607791904106397,0.026438706193684713,20.429523029088866,-4.637146008340639,-40.10979699462938,1013.2339482810759
1.42,-0.15202154984532287,0.1510456902660715,7.10702314139343,-0.04661511218042753,-0.001346943563087493,-0.006572939906556793,20.10387529880706,-4.607522855656041,-40.07865891642423,1013.2686432338387
1.44,-0.04917454663110054,0.2674465908097694,7.618440839313693,-0.027397181585698375,-0.0031065498762719856,0.00982251661426135,19.214451128714693,-4.8183684603762345,-40.08014647141151,1013.2418274625824
1.46,-0.09076592508551362,0.14071951681444006,8.439313089302916,-0.02434645906715759,0.03858409598086511,-0.016183999423715456,20.38534939104738,-5.036206169415272,-39.29204286271137,1013.2441534660039
1.48,0.09281961790755286,0.19948419384208782,9.085294198916023,-0.04150647995687532,0.049559091896296224,-0.02142490104824186,20.633811780401953,-5.304183747952009,-40.607899149254436,1013.256089837881
1.5,-0.001654586944518227,0.28595337317802544,9.913572803110164,-0.025247785977143347,0.024277399265824184,-0.01237457219838049,19.571411798111285,-5.948967759250748,-40.41231128560231,1013.242251859994
1.52,0.33840143360164154,0.3511363424284533,10.491981764544077,0.013022965869942088,0.047739660755738926,-0.03627706752825409,19.995533066054016,-4.8301791166433246,-41.30609789915967,1013.2168396449316
1.54,0.37766572618017513,0.442341020101082,11.279041975966653,0.04466330209999595,0.04489038526200322,-0.03911779777097733,19.137322868996147,-4.906973578173906,-40.24045833308707,1013.1858332517244
1.56,0.2598181005044881,0.034803728682024644,11.957479876881164,-0.010056392124425675,-0.006671728750116956,0.005680346128813539,19.37059677015783,-4.721212078587592,-40.197821777063,1013.2248575819597
1.58,0.33570238789961077,0.16316197997198453,12.296581795548011,0.04913092787113237,0.008488846559359782,0.008075183634757746,20.524014788808625,-5.668771846646447,-40.25498858816713,1013.2494189105176
1.6,0.05384217933168106,-0.03105660905281849,12.731685834519071,0.07134526592051053,0.023596127593456778,-0.03884325663765008,19.766791746996283,-4.67749165534247,-39.44616133025812,1013.2269380733717
1.62,0.1561515035175851,-0.14213745572278366,12.704791294124819,0.046840818897289326,0.01088070056438048,0.000764446373312265,19.44559851253098,-3.9727274526896115,-39.56969123883152,1013.2498235674456
1.64,0.20228294028592034,-0.14735340533213476,12.702403675201309,0.06011841245696329,-0.03244256405728126,-0.01983574056144082,20.114730182229216,-4.960774934611044,-39.96107163786635,1013.2365745635184
1.66,0.06976599083303736,-0.2360444551711196,12.467220473298312,0.03117997100534496,-0.018120003568258866,-0.010729962111068667,19.73879378428449,-5.03083265960327,-40.18530652676993,1013.2591613214053
1.68,0.18261714205140578,-0.2675991987448253,11.942163781489018,0.03613833815325202,-0.011423054980224931,-0.007682185721339043,19.76458917111223,-4.8454988219571495,-39.48690516594657,1013.2272956658576
1.7,0.23811965685881314,-0.33836685659276944,11.64640162899526,-0.003029007751539338,-0.024909390538929384,0.0037066694749874167,20.369663012837453,-3.983831487644831,-40.009878929917924,1013.2423522965313
1.72,-0.1544711432895488,-0.43754414870454195,10.843963307023632,-0.02848063853414347,-0.04839454003469122,-0.013755900818252014,19.419133320532826,-5.511823880849946,-40.40913501945923,1013.2429177012907
1.74,-0.19344279985856172,-0.4335876745347784,10.187873818502068,0.025121977702720726,-0.05896526133220974,0.01362386735761049,19.547317393659085,-4.898396533303048,-40.85812433874228,1013.2626320374527
1.76,-0.152145778739869,-0.17784789415050412,9.506112298142979,-0.02596656023270397,-0.062192624752413994,-0.007502685323375284,20.077039996074433,-5.399828711148822,-40.220657246947844,1013.1982672538733
1.78,-0.06953386932051758,-0.21951020456665818,8.772606018350457,-0.027516784534302535,-0.03713242863621942,-0.00026479434558314245,20.4847048953741,-5.273502360422498,-39.6226781914137,1013.223031834509
1.8,-0.3933454799989013,-0.1880628735773637,8.1464520094685,-0.057118107680027494,-0.03654877025588964,-0.0284209568765944,20.619080150744924,-5.024795153940969,-38.861730655228456,1013.2489703221078
1.82,-0.2696322853203483,-0.05614597278205948,7.483687448996217,-0.06672505620046702,-0.019283119365390428,0.03245664431451675,19.66746913981919,-4.326338379193221,-39.96919482690526,1013.2627179295956
1.84,-0.11732708760547261,0.09753543993575184,7.032024095795319,-0.048718106625193304,-0.018651488315830606,-0.00023857501793497944,20.468688483459825,-4.099504699655632,-40.38267775756015,1013.2364014302528
1.86,-0.45073797972083396,0.10998370034467556,6.8511805161779735,-0.06370590641914739,0.007006213277662699,0.00574436267560054,19.607928853264795,-4.775928927686647,-40.592482604142106,1013.2255459167116
1.88,-0.38183116304195497,0.0944695163786256,6.56281964962148,-0.04234191646151962,0.00503137663561952,-0.039526207277924406,20.9131046734534,-5.188297361511743,-39.7240225518472,1013.2463423673735
1.9,-0.24830465317811584,0.34077390801261587,6.739763580251076,-0.03850205743516586,0.031144624041381058,-0.02263438034908097,19.433114487290137,-3.753630566680741,-40.882308026192135,1013.2483740535047
1.92,-0.19728236553242356,0.42042593687102736,7.078611281640792,-0.03579940334860868,0.04420779515628251,0.019783876015077504,20.664239405395865,-5.2137772406647604,-39.72482744929756,1013.2236067664267
1.94,0.005882000936825754,0.3398315216972856,7.606771658073711,-0.029455339477865567,0.020357898766574296,0.0019901960741376006,19.671756946590637,-5.285567957179869,-39.59114419686854,1013.2372061462436
1.96,0.023369525545345497,0.39736529392100184,8.424705111703366,0.007467680393551886,0.007652453064778228,-0.040782259367864615,21.0066232273973,-5.887471522289363,-39.781860273383565,1013.2540105452483
1.98,-0.10366092734040436,0.4149679921953517,8.928108480201429,-0.03378636973914044,0.07929901517672262,0.019509988189090118,20.295660364426244,-4.301954215377628,-40.10983083596928,1013.2680091798654
2.0,0.1953687018713417,0.3762847002075633,9.753275616894088,-0.001098697324058404,0.05513317461424524,-0.010875656087054474,19.49199173529589,-4.515877203814353,-39.71752967322659,1013.2448520991848
2.02,0.14702893486485938,0.2806449403655761,10.750953906162467,0.0350882907686344,0.014139440146509155,0.029482150108120497,19.738880760228746,-3.791097231941777,-39.91453081443585,1013.2306827779332
2.04,0.3803154493683558,0.22125463868562006,11.201821426645932,0.04937847989184648,0.029538944057818966,0.0007499510992120904,20.39059060261187,-5.694761676109063,-40.389061920930295,1013.2285184964793
2.06,0.2223110802910926,0.14542829452376504,11.974268653056125,0.005792082309542913,0.051885917218467206,0.007841760012125084,20.52632220880778,-4.270914596260445,-39.07479383881249,1013.240547931144
2.08,0.23569542580547986,-0.09010180314726376,12.202941124504564,0.03596928744198337,0.021197803126291957,0.028552889315130066,19.964642204137768,-4.964932240816936,-40.17583968980526,1013.2268865431504
2.1,0.3489475369921217,0.014640458592975372,12.632353915205314,0.07471524773210288,0.005209621332364878,-0.011769519529594305,20.022329140481734,-4.596949891599932,-39.612123849775045,1013.2327928099805
2.12,0.3480789177778121,-0.26259408816080143,12.661576877048228,0.060062918525394894,0.031157163182724948,-0.01249444510298523,20.379176516322033,-5.823888570552236,-41.20930714134786,1013.2076424747094
2.14,0.27647076869475307,-0.27007279601725626,12.706006790800982,0.05301962316602989,-0.030314808656962428,0.004585617423339304,20.06589921350541,-4.265959088667351,-39.361764558609536,1013.2545411439298
2.16,0.008419561237241663,-0.1118795967583073,12.650527378016667,0.04088765875460781,-0.03725203173335039,0.026178529474458756,19.35324757033081,-4.606741624334084,-39.26561812767271,1013.205596305457
2.18,0.1649809377811641,-0.19461675503662773,11.862441664848514,0.030849643624634545,-0.027643469986469146,-0.01590100915268988,19.593512987679908,-5.019455017393109,-39.98508310643668,1013.2195577647909
2.2,-0.06504080138342715,-0.1487937113415164,11.638519303409293,0.035153643876430045,-0.032641751077669805,-0.02160498695193246,20.117559971575833,-4.677443656169439,-39.72061448263112,1013.229951865217
2.22,-0.01328206018779323,-0.32490062109338597,10.950033998403875,0.013358745134544183,-0.03656196360759796,0.029222898335849644,20.607741208248846,-5.382747650521124,-39.72074240919622,1013.2676197375978
2.24,-0.2520699029899494,-0.39445003841024673,10.096877207338384,0.005415089257326171,-0.031380974174344975,0.001631375867233711,20.807991212081024,-5.28972004279085,-40.321391784820364,1013.219146340303
2.26,-0.13105840081655473,-0.2672161021856617,9.217091621148837,-0.0046946875559141996,-0.04563416265209359,0.006734852290022549,20.389764710385727,-5.231722306812698,-39.72643884728033,1013.2140796837208
2.28,-0.3113053746012162,-0.1816370658340303,8.716445768103057,-0.03196765820410373,-0.03670114551564445,-0.021725943183287542,20.143645380518183,-5.926363930845139,-40.40431523493628,1013.2161836616534
2.3,-0.39937151377096264,-0.1205551119777471,7.967220336763022,-0.018746675136994705,-0.04563503490504918,0.002600753600459294,20.37440694299124,-4.569120752898316,-40.304378461822665,1013.2601779433522
2.32,-0.2231538839028023,0.05637151242129422,7.533361703375843,0.01975923082951901,-0.030617233422700296,0.01673521257741728,19.666624574896574,-4.404203192908717,-39.43652842839385,1013.1705530601299
2.34,-0.2752925205191084,-0.01808482785615662,7.098796664430464,-0.0807810854098224,-0.019138280977181125,0.03613369075333511,19.923384519870893,-5.3506720748819205,-39.5126711546499,1013.206545239757
2.36,-0.3469597450421973,0.12715075322232708,7.103405081512073,-0.04263411205263482,-0.005067103012905602,0.0026719377246276124,19.58793463933026,-4.825898492027591,-40.353187751057895,1013.2810257741831
2.38,-0.10860635745526542,0.061212295099261654,6.780016470594232,-0.0651051381937917,0.018590322128120722,0.05174305212241495,19.375628694646146,-5.1327702373146185,-40.36678817175052,1013.2380176414698
2.4,-0.2500092346890063,0.2631763402521021,6.8033058272212585,-0.0360047742643727,0.026553763357643936,0.005330009842307059,20.166774505818104,-4.8358630189594844,-40.322798301228836,1013.2038803010132
2.42,-0.14201275684978906,0.26281824159142775,7.303907568737398,-0.04128524680854361,0.027675679806953384,0.005709827190869127,20.092756653292373,-5.313788620605514,-39.63368021676725,1013.2249616403566
2.44,-0.04848678307067869,0.2153945223365485,7.789358184809698,-0.018990259815585185,0.020265911672249764,0.05039289605252982,20.343826242254508,-5.441712578043818,-40.4999923904052,1013.2269490913213
2.46,-0.06276303984959974,0.27641600656910753,8.568617113980915,-0.0005775521749102584,0.04516875916344733,0.0240714970735679,20.273055915446225,-4.473962556988129,-39.821643680482026,1013.2423225049181
2.48,0.12094890796380135,0.2723544178624484,9.189197025392623,-0.008586072002879105,0.047868802358516684,0.0089200399883339,20.12132213566193,-5.031935292562246,-39.62657659468285,1013.2619900400564
2.5,0.09048242686478813,0.23625925563340233,9.863530658872424,0.0226410457682835,0.05386363159626397,0.01689733737638813,20.278308332838776,-3.9889455245732623,-40.04412272514655,1013.2327710336256
2.52,0.16361899137880342,0.39636914688108216,10.775565095177493,-0.034451463517530936,0.09255966419923964,0.047022006119406615,19.97865845188626,-4.97684501760293,-39.494968151567534,1013.2140042339397
2.54,0.38913499165456655,0.151575333747343,11.076946564156717,0.05589672966340621,0.033339878431368486,0.0491663504188032,20.2064456976112,-5.463039020175247,-40.1521550847449,1013.240341688842
2.56,0.18101122868354153,0.06907262617138005,11.767678587873606,0.041728598334281296,0.04489421175357772,0.0033098814291686526,19.63692779865682,-4.38652956178203,-40.106927800496955,1013.2104349460627
2.58,0.058078921022754415,-0.19011313145357353,12.203997385295217,0.0637732633900044,0.04816058109383579,0.018522987020990457,20.184852962819566,-4.68459991792699,-40.48862311556593,1013.2035332500802
2.6,0.455928075412858,-0.1448525922909309,12.604698078412094,0.023155310917927233,0.017410888000735092,0.020824266879254535,20.334208842643005,-4.6365635681517885,-39.4914113261899,1013.1888018225609
2.62,0.5267190648048192,-0.15332003349378026,12.597577263151368,0.03328593878930686,0.04989642835990911,-0.0011292724925669184,19.6651592859639,-4.404699660566041,-40.38326022348944,1013.19249743211
2.64,0.19113390575619887,-0.2591981181224158,12.852134394208226,0.052033128419329895,-0.01692985156391591,0.016982839996320498,20.025916049496423,-5.326398146922897,-39.82511409114247,1013.2056710968775
2.66,-0.016704511086295976,-0.10406534420133634,12.49114775283324,0.04490059483655169,-0.014807180131852761,0.017632590809911277,19.68819874518532,-5.063626654492643,-40.03565803356297,1013.199844204646
2.68,0.08012909616874468,-0.2951325488456693,11.900918784151969,0.04418703389898925,-0.04784731438529413,0.03969074808877501,19.736746651741942,-5.085724915743897,-40.52639153155583,1013.2294647305475
2.7,0.009767708799946973,-0.16868911537827724,11.42101889469629,0.05107956583322304,-0.0474813444216132,0.040328840453722974,19.437535322448923,-5.645373268457809,-40.30455157191166,1013.1990119634835
2.72,-0.05580205544884627,-0.29156271931961986,10.961400735171551,-0.016898178671823284,-0.041510146086479495,0.008826076888335612,20.632887462583277,-5.131795075079122,-39.30856388047963,1013.1599266739595
2.74,-0.22103526364222814,-0.2755023706404123,10.311718685877063,0.02574304311256125,-0.03267965381956932,0.010300309671211986,20.532842587360022,-4.331810271061588,-39.89917122868276,1013.2017217645083
2.76,-0.11773450132321331,-0.2520520272498776,9.733509933060873,-0.006101023479056394,-0.04322383838525245,0.02697678815968651,20.26871692711367,-4.881330948103076,-40.504575170683424,1013.2129628070455
2.78,-0.17819474664186957,-0.1914605703959427,9.142705711847086,-0.02248186485672453,-0.021306527307717982,0.0010447108164335916,20.98609797597191,-5.673030663922494,-39.84733585632566,1013.2100910102426
2.8,-0.4205486107268416,0.04342551669323877,8.108805658113983,-0.05881156730232141,-0.04235015593060085,0.023528508080597522,19.905377151715804,-5.777919705832468,-40.073057015797275,1013.2523904935862
2.82,-0.2246162243815535,-0.2889576081294979,7.350029553667858,-0.028464688771252078,-0.0385145700842147,0.00895840615219565,21.515881207555317,-4.167611970625864,-38.272976798877906,1013.2095291488142
2.84,-0.09418847449219445,-0.18211235979968002,6.775711900492251,-0.09352350964392164,0.0327907375673339,-0.009752898072738091,19.88623529231839,-5.045159505127565,-39.857438079328865,1013.239218469264
2.86,-0.2683660316592019,0.037630222936422174,6.903294967165513,-0.03614648231166013,-0.0014843127404458954,-0.010621148426291454,20.127596675878006,-5.323705102850809,-40.19031242353318,1013.2210203480064
2.88,-0.28745675856422187,0.16152779823647997,6.693978650418638,-0.07974345313087342,-0.011250104943105283,0.0363036649743156,19.801111043029895,-5.136995882448502,-39.289986041106445,1013.2203539054865
2.9,-0.22014431397278422,0.287155054924122,6.894526862087586,-0.04648366756240822,0.0015655744737859273,0.0030519103046329843,20.186162780030152,-5.738653877158666,-40.92051808364642,1013.204292394223
2.92,-0.08369784755002646,0.3098161063756116,7.185201703634979,-0.04459977302165924,0.007937741458322902,0.037780879621263336,20.417807463943124,-4.2884524252441905,-39.95283992180945,1013.2196243469684
2.94,-0.24844528838926172,0.2519512648769429,7.735240049251467,-0.01083659235055692,0.05517981848820619,-0.006525098922583688,19.94304180347346,-5.196526468793015,-39.00278575265946,1013.2052980774621
2.96,0.015642623860992834,0.4019033121107691,8.524636012313007,-0.027660787085363507,0.03652778814432838,0.008330768693915946,20.88835992355881,-4.316299236130789,-40.058099642179876,1013.2238004862851
2.98,0.03478888367752733,0.39379153282924373,9.087487623622238,-0.026317265581156053,0.05097640756956127,0.0491093448509511,20.11957464231673,-4.974174142776342,-40.866650522324036,1013.2154750073475
3.0,0.32861016287686506,0.2816805516942686,9.786204774444194,-0.010132053919424133,0.04872982651123463,-0.021147734893265577,20.1352426930551,-4.28523401271578,-40.1979589822053,1013.2011074413361
3.02,0.1873655502199285,0.31550077990299796,10.400721598570684,0.03789214973333587,0.06305900621525029,-0.039212100388581785,19.545501152743142,-4.871652750478457,-39.272740979520485,1013.239637886794
3.04,0.4196594887861833,0.18868446032134573,11.00405858059948,0.03481362308870345,0.026880452144512883,0.023225137954458602,20.20924953727519,-4.573383668565462,-39.81196520183961,1013.2281368096004
3.06,0.1746957641565841,0.03731393451082554,11.79069513142507,0.026514755665971255,0.014936985648210221,-0.020283808399575973,19.932986389595317,-4.640453476955831,-40.41942805475626,1013.2104387453171
3.08,0.3580828707959826,0.08941364820744122,12.334916393883297,0.03748746787581049,0.03127728589258172,-0.005387925025421771,19.695880135331358,-4.6883544668740145,-40.34262140358951,1013.2221098609407
3.1,0.32677440229079147,-0.044370544835115294,12.928359035922442,0.01620928400304872,0.027470035412745387,-0.01789870409653064,19.611762795925817,-4.826032761408645,-40.279850135574904,1013.21732354957
3.12,0.18488154475764068,-0.12687870637269621,12.823621363505747,0.05767082043844439,0.009790172238418632,-0.0019992354345872232,21.33588168987834,-5.116425358057793,-39.819401057973,1013.2014481812547
3.14,0.24940044376482617,-0.04331749328579401,12.904272678839524,0.013918048382525097,-0.025558140311232918,-0.02752630997501631,19.86826137491048,-4.04228265421357,-39.330901933530676,1013.2200099245805
3.16,0.29823117665888266,-0.48732331639312465,12.449586817617185,0.06027728194001007,-0.0077392677364258155,-0.013233875239700432,19.271507289609367,-5.45346849254795,-39.473788493600416,1013.2059797649039
3.18,0.07879832335967904,-0.4204071883220044,11.943798163364814,0.04109809398861478,-0.04674841802934717,-0.0017202293684492453,19.650889270133714,-4.9978461788284205,-39.77199390894543,1013.1993013232876
3.2,-0.13080626113296237,-0.4162405829475395,11.428588242542569,0.07712829860610217,-0.050881622614474986,-0.031921882771334696,19.974216080261893,-4.992557062396203,-40.66582238002874,1013.1855446533947
3.22,-0.03856595399436509,-0.3340592474815372,10.80558974837366,-0.0035964834402524085,-0.06536789478885269,-0.02675016038789159,20.27333351630824,-4.798779623328239,-40.66396625699672,1013.2106278529293
3.24,-0.1999387689292945,-0.304685971259173,10.50527016055818,0.004213419857402421,-0.023582568092683293,-0.02063859879054442,20.277398260862658,-5.2147363229472505,-39.733373989393115,1013.2289394131916
3.26,-0.20992470943724922,-0.39390494725593234,9.310792297423447,0.029699092340246334,-0.036937304245176945,-0.043155681232953776,20.338307275888262,-4.8426268472052065,-40.67273554896645,1013.2035068129325
3.28,-0.23880426113899028,-0.2903559987891713,8.831399722506438,0.005421565171594724,-0.03438895678083524,-0.02386148451149069,19.677569846681337,-5.084421292601483,-40.1127835105343,1013.2676141738432
3.3,-0.4416732703464626,-0.21453815146410427,7.911205166409532,-0.043313503646221586,-0.015506621295898412,-0.013804409089440908,20.17022022175077,-5.79097625871895,-39.847924776906915,1013.234713713073
3.32,-0.45610173148311,0.18874587375321308,7.638196223603775,-0.03404631357132041,0.024381785477339865,-0.024877537341808864,19.561970267944712,-4.9952238568715766,-40.568796997681346,1013.2428866026532
3.34,-0.25125028913423103,0.19821640941890245,7.153261487517827,-0.04520136549499914,-0.05547348665645695,-0.02295366345951175,19.690178508492995,-5.550282666515076,-40.51213116717943,1013.2325048602414
3.36,-0.33783393451987603,0.050772364273568564,6.839642563165224,-0.04347524518855124,-0.024136597346828683,-0.018494574467452084,19.54114551274987,-5.867192881224451,-40.04706053228391,1013.2534572994988
3.38,-0.5101986765394281,0.12371668101204314,6.809805435794871,-0.06387494514111018,-0.00918397570702482,-0.031710398966411306,19.405805572700864,-4.931563339655307,-39.74817485623797,1013.2004599603305
3.4,-0.12745958887121867,0.10322421272889129,6.858612296800129,-0.0493392338687724,-0.0015655427289065632,-0.005199879008565524,20.532104744429006,-4.756058328990217,-39.46924061479312,1013.1647852522868
3.42,-0.11798654871945868,0.07169434525033735,7.343927053716262,-0.07417744378063512,0.005239674796875451,0.009347899273462894,20.344305850489445,-4.736650978947711,-39.696473282614726,1013.2068774878329
3.44,-0.14676561024218837,0.2786878375241475,7.688111160162808,-0.03152488625907296,0.03045537008996311,-0.028933352858482742,20.488332684989064,-4.716414646490153,-39.9631717025039,1013.226764371511
3.46,-0.13247946754256162,0.20021374446219026,8.18089811312977,-0.015087270236649073,0.01948325969640511,-0.010138329396735415,20.01965653301215,-5.966294510470306,-40.373097376778524,1013.218430339435
3.48,0.15741606825524201,0.28228693934776966,8.872239702357493,-0.016982882611120433,0.05513000540717982,-0.02475287767725837,20.388403849432574,-5.680508463953735,-40.53545349792226,1013.2207094522194
3.5,0.1787627238373034,0.10325418366276432,9.835888187658313,-0.03230101781169584,0.051033966428572296,-0.012690253099229906,19.119355297678727,-4.013239281593164,-40.255438544164576,1013.2414182000534
3.52,0.44304305186883164,0.1430375768232881,10.79293334995612,0.03220513161527184,0.0580497313517047,0.011355056055499656,20.431543759022677,-5.523604380038518,-39.79503220750971,1013.2224411514892
3.54,0.294889587546725,0.176282643508416,11.27925976434115,0.03137818446494161,0.05396990303495834,-0.009669103165927584,20.088559915002516,-4.694579484431656,-39.831688146686325,1013.2305782585519
3.56,0.32384014806098627,0.13008319696750772,11.845845568869587,0.01970705334241494,0.04850856843960407,-0.05511403579076739,20.313554800074584,-5.343468810832923,-41.04995099286256,1013.1956087451629
3.58,0.2826641611048469,0.06137916018164227,12.385857697446427,0.03660438733833946,0.019323161012472195,-0.010291750593633445,20.19001164952431,-4.9601636303662175,-40.39283851413375,1013.1922921262156
3.6,0.3765119626317477,-0.18748075550868673,12.859069810141483,0.017539437759120872,0.05787371777142081,0.00563614454027711,19.506472422731555,-5.316627101136797,-39.39774622419692,1013.2462822784605
3.62,0.3342947896689344,-0.041544118034588684,12.836987560489392,0.02939313386585548,0.007828148306107783,-0.02302745311772709,19.250980112304475,-4.719229422690177,-39.96039247609793,1013.215818030703
3.64,0.35683333315765164,-0.27063402016493643,12.695222667561005,0.038358135609291626,-0.04661876078178226,0.0018161550730362644,19.643972916908517,-4.93161294134165,-40.708504456551495,1013.2011354163311
3.66,0.12484700111199423,-0.1789503120783853,12.690424463907041,0.06980976886890398,-0.041336479493578035,-0.03132844442391619,20.282458640636456,-5.224144886822117,-38.82208940920093,1013.200972110129
3.68,0.06763674649394295,-0.27970263896786673,12.18585319409661,0.025735594321039963,-0.06668125926799079,-0.04659734170048578,20.345045707587698,-5.525086059840355,-40.01447086615738,1013.2002175375673
3.7,-0.009520313307183982,-0.4351722902178973,11.803719155676824,0.0421935358011989,-0.04010415713572118,-0.013356959510846152,19.316028861309068,-4.866112901253745,-39.807833020343296,1013.198820819579
3.72,0.042270500771278495,-0.32935295318277547,10.94185882363731,0.007639903577002123,-0.04892492877547932,-0.050539799270442054,19.50945031626589,-5.6063593995212955,-39.80023762197743,1013.1871370439479
3.74,0.04014098457963007,-0.2426887800761933,10.00232934593483,0.01122561289525259,-0.058974249023713066,-0.01937479280630006,19.63838215702958,-4.786259478939581,-40.18379773308009,1013.1825915919555
3.76,-0.221574664885791,-0.1818758444311677,9.228776419420257,-0.009094571721090954,-0.009387212817713646,0.012045903134336261,19.82134746986659,-3.6867575454815498,-40.3637868409107,1013.2084999124469
3.78,-0.2731228569497872,-0.20593898530253057,8.953265531780675,-0.0009450956323786806,-0.03550916681287449,-0.05094373790989944,19.318974584573674,-4.324914974368994,-38.93916250746703,1013.2003414825937
3.8,-0.23970032635793093,0.02472390544835798,8.30519410124008,-0.04008548937899474,-0.025928882489820747,-0.03734564096412743,19.288974116929932,-4.6408260565529185,-39.49839706519113,1013.2341431857088
3.82,-0.31911204755233236,0.04375454164427973,7.47153238968025,-0.06997622713883818,-0.050492669246276684,-0.031357180802811496,19.589082351796222,-5.042803648870573,-39.58903139944566,1013.2176615330653
3.84,-0.20425160737279457,-0.007623196995787566,7.03804074443155,-0.07288033325057353,-0.04127186240487409,-0.010901470676253525,20.043126918112502,-5.969376313501763,-39.71185540414089,1013.2169063536015
3.86,-0.5107397939648127,0.1669594872557279,7.082354891650268,-0.05975191241528953,-0.00863295574734744,-0.01582992154422567,19.409702830123255,-5.661143197950092,-40.50165869518084,1013.1965375918489
3.88,-0.33639474704906086,0.35345435856154167,6.649862962408663,-0.07488253583497465,0.006599668769510162,0.020620236580228185,19.942098245014115,-4.358603571948644,-39.361234904129866,1013.2087794316843
3.9,-0.28418562592817687,0.4141930725260234,6.822621398271163,-0.03934858550116668,-0.021675381623541864,0.012906626694334991,20.529276408070906,-5.39487804006239,-40.42156632900588,1013.2182200220726
3.92,-0.3772591254854972,0.13970739849061425,7.373515242697307,-0.0515317595722624,0.02318519929195901,0.004931661178074846,19.349110131293244,-5.3496260490820235,-39.85835660092468,1013.2251239147942
3.94,-0.17174197227542043,0.19772254504928483,7.697167913784986,0.013264775704094026,0.03672987302854051,-0.0008350200048368194,19.89677712079473,-5.082825237842011,-40.819694952732284,1013.2087221634696
3.96,-0.09231205802133016,0.44849082145997793,8.363970697686847,-0.05884197560782837,0.03951235068677062,0.005357930868410466,20.512378366875385,-5.531023129423278,-41.02042942532376,1013.2319824755865
3.98,0.053724813171925165,0.18494388743020695,9.039413903726757,-0.008361830784046741,0.03216134980949803,-0.01849545749685377,19.790865804818097,-5.613384367275819,-39.84085439867344,1013.2103597861782
4.0,0.25512425074728673,0.13102065523794418,9.860636182319835,-0.022559060470113478,0.0392092963615772,0.017144207071132234,19.71316515457079,-5.025237036390711,-40.404549633597455,1013.2258569423703
4.02,0.18027675848135238,0.1706156095844107,10.767191940691593,0.002566467550588661,0.04489197418497577,-0.020985074696597807,20.581747907153236,-5.445764727336018,-40.994583785648636,1013.2000029558282
4.04,0.14978935564711582,0.2034426049255915,11.268848758340397,0.026916073171896437,0.045631334474394256,0.019214204549330677,19.846898960514228,-5.370509289889448,-39.72969524852646,1013.1733482326687
4.06,0.2793743798134312,0.08322256652800644,11.96023213677758,-0.012280072201051533,0.048544263022082146,0.027470476334091082,20.552247512602783,-5.390595513073503,-38.9399596144746,1013.2147671797603
4.08,0.40427431625983834,-0.04542439773311832,12.035457961351392,0.04695291861086129,0.04840846384796728,0.009191089785058837,20.2144826955636,-4.738819893082765,-39.30521987070997,1013.223706481263
4.1,0.1972384943001785,-0.12285310326543172,12.655861788595935,0.0856109750602409,0.009563895248202812,0.002656078708259388,19.82857767354508,-5.116062845247678,-40.12865894263284,1013.2205069466361
4.12,0.18072878115197413,-0.19824639748941564,12.677595644740883,0.04083257045404171,-0.005983597945841316,0.01536868921988701,20.239845265298765,-5.089285983946927,-39.99557734665153,1013.2172437332288
4.14,0.2875157282285559,-0.27856381337064395,12.574039793122525,0.054310519672544674,-0.0006159522585998684,-0.04871478157071203,20.160224756923018,-4.7015270513455585,-39.55614687160804,1013.201628260681
4.16,0.15482568140264272,-0.014072815811509709,12.392758302358745,0.06573978648580894,-0.009072066250036585,0.015680237851743536,20.510441410501237,-5.07101980411647,-39.43893599008255,1013.192265074971
4.18,0.1759259628592887,-0.2488876641874911,12.07142121222226,0.03524659213824978,-0.0405552081526119,0.008449455942783759,19.72582723106749,-5.139126884228586,-40.17176785941285,1013.2192345653809
4.2,0.03702532460448443,-0.2088576348696286,11.710741138230828,0.017770058843994074,-0.02464298017942387,0.010743142784709635,20.02060303339081,-4.764774822214915,-39.982911142137716,1013.2165289483239
4.22,0.03335669346233847,-0.3466409295365493,10.71541475039311,-0.027108500440200984,-0.026897117471293044,0.02687913005293033,19.96924216019768,-4.665901078221184,-39.84969259661773,1013.1965820181831
4.24,-0.2132042708541072,-0.29782082200117493,10.19059442458207,0.01908647606611457,-0.023772005752550448,0.012195563687279226,20.352074070819892,-5.073536749754302,-39.723061839860584,1013.2297884837838
4.26,-0.17689908064968762,-0.3145277806156631,9.36137488430707,-0.008530029872792843,-0.01403931693132749,-0.008224764584594951,19.48741040277791,-4.959696112189739,-40.066538221005636,1013.1897426897091
4.28,-0.2517144856067951,-0.45701102905000734,8.656475377791676,-0.038659904661997105,-0.06381714706760136,0.012582211439008222,20.508488524118928,-5.390895114866664,-40.060042622534375,1013.1955295324241
4.3,-0.39269714115532384,-0.266254911296534,8.197057916918276,-0.0268573284090697,-0.04017288553209721,0.017531449569115433,20.233164386085207,-5.430341521582263,-39.3100838351228,1013.2397285042468
4.32,-0.4508836923379115,-0.23805840345241364,7.579177587223215,-0.05019926927491321,-0.03164564555506115,0.019185236741660568,19.341537463183528,-4.615426249016596,-39.395239648778556,1013.2241716387547
4.34,-0.23088206915931742,-0.2069361631509731,7.296128558718359,-0.05580987524561139,-0.02325043594890401,0.020764520946578623,20.60413141274025,-4.777528968727689,-39.761294713281956,1013.1994398138821
4.36,-0.3206573031247052,-0.02758859138777489,6.839962395926449,-0.03698853941426028,-0.022354324121488918,0.038883921947691455,21.117046540398867,-4.772350780791712,-39.14044546498854,1013.2121476141929
4.38,-0.3559522705221044,0.29257057798088604,6.71152842296458,-0.07666898464789047,-0.0265717140881558,-0.0031251613429179245,20.500916984774705,-4.859572825637239,-40.19322288111321,1013.2092958448904
4.4,-0.21556188622436398,0.21370099567728662,6.923251628582469,-0.02660652009328244,0.017304438639327683,0.02253513944920008,20.713492383613236,-4.976898362092523,-39.18851327568531,1013.1510877227005
4.42,-0.03242163851195251,0.39156376280498134,7.313390742184634,-0.07017011953746892,0.011424226557991427,0.04517025719493743,20.042685690801296,-4.651794054588615,-39.728742278232225,1013.1876705210104
4.44,-0.3034519123757303,0.3314741138550879,7.7828446859819955,-0.04748138346353963,0.03816830098602315,-0.015046484924170132,19.169247540130744,-4.532445619488608,-38.3644869388927,1013.2045830676578
4.46,-0.15046031542707028,0.3782548253581088,8.20208076685985,0.01437124017624581,0.027934463168216135,0.023435227641890627,19.077939774416237,-4.544385997404676,-40.59624096339124,1013.1982677704689
4.48,-0.018453365565716556,0.20068229298351264,9.077503805749634,0.010112600874606012,0.02643599113954481,0.008252964529104564,20.12754102193388,-5.050388957972993,-40.34467262610867,1013.2101420512965
4.5,0.2899455482532932,0.3156698639863792,9.844234249520829,0.0019520798499086938,0.054685967207537954,0.012585792310537901,19.70401059613501,-4.306503635045581,-39.79060108589972,1013.227589646259
4.52,0.23304152189235225,0.29210644606175,10.93369076712462,-0.006376109951782111,0.05144758859256161,0.0018643845042769953,19.542711860836324,-4.88576965913384,-39.801382973510506,1013.1983692843069
4.54,0.32960245172035385,0.10375520475476371,11.536787713997384,0.01350223757108768,0.055400973428611965,0.016451279712280678,19.968626658015662,-4.683811903717101,-39.024930507912494,1013.1834469040775
4.56,0.17105374202216106,0.14941627425073278,11.73565481520223,0.03569286158814813,0.0801657066994233,0.05647085730311187,20.307792643930643,-4.85895605458256,-40.334187341649766,1013.2108970331702
4.58,0.18740336658865075,0.07625074016492425,12.29987627227367,0.042966860921892704,0.0323371303731668,-0.00591694400097165,19.273621226618925,-4.876496646257913,-39.547540740653055,1013.1976675333286
4.6,0.33961574758394003,-0.11038711920598904,12.443653248609902,0.045735407222238275,0.02515248506003041,-0.004371069723673463,19.775561189859808,-5.36787599512516,-39.418768497659,1013.2008787299835
4.62,0.2776137026376637,-0.23928953427524424,12.715474133190291,0.04928468613972988,-0.018411700600880654,-0.007443161685505052,20.754935341560156,-4.649324580827587,-39.64767608388968,1013.197964525617
4.64,0.2865347141875463,-0.3090256836945769,12.80420250272462,0.0448268603423322,-0.03510721454001347,0.052644906781882425,19.462355809889313,-3.5773528025461805,-40.48049817096216,1013.2484367560003
4.66,0.15821219388287758,-0.23358554934696968,12.705359200531294,0.016401777910500705,0.010367624357213015,0.008279339490451532,20.434880593582477,-5.187397537395042,-39.2961205973729,1013.15858591478
4.68,0.138991866433804,-0.2459377844271151,12.012177152665844,0.02819544729557306,-0.05034079508610025,0.01637377730308684,19.757634619225502,-4.964502642287526,-39.38533753434229,1013.1954333219373
4.7,0.0542019122745251,-0.37678612335589395,11.475233790867257,0.047681743694360686,-0.061329731148120153,0.00812468106537416,20.272896879924975,-5.223102632173632,-39.70020774010481,1013.202926219487
4.72,0.04096706756187438,-0.2950746485920471,10.592280303593245,-0.008960458316788277,-0.047270802718743565,-0.003478192712546034,20.548663753601435,-5.244009950780967,-39.897826156395524,1013.1871771501544
4.74,-0.028995631255595955,-0.22217145066872152,10.16159981261117,0.002475551447429545,-0.051409583333271676,0.009876359616139516,20.37064088349251,-4.227775260940664,-39.886945994977815,1013.2205965166426
4.76,-0.3376778150100378,-0.18135331101209756,9.274638137528173,-0.022661740253631768,-0.06765586519458977,0.062855814233305,20.454579801106938,-5.336485508863732,-40.039367896119685,1013.2186651535744
4.78,-0.4553723397045649,-0.036652183545838324,8.626210427841057,-0.016179219046271627,-0.05258828866867459,0.040589898214458894,19.424203233296023,-5.237040236683181,-39.67960743287368,1013.2012449076302
4.8,-0.17093350897976006,-0.0007559003919431206,7.915115126397447,-0.03716192623595993,-0.015863335365745353,-0.005303051309995973,20.55682985337065,-5.7937464118656505,-39.98443257352751,1013.1965865248932
4.82,-0.17576338822484894,-0.15712567873002864,7.484320888534743,-0.008977788839296192,-0.04799107166407031,0.023668017960813633,19.57365344268259,-5.378805862271124,-40.42426248767632,1013.1995608633155
4.84,-0.4015192746381174,0.18640083559798984,6.831859583898454,-0.035109689539495795,-0.0491624142655773,-0.006995381971293199,20.12977088278577,-5.854199946476674,-40.5242958224138,1013.1995042669271
4.86,-0.47154560555747027,0.03884965558646383,6.643081461005285,-0.07535042585197867,0.009482806688709636,-0.02701176694562297,20.129123093498613,-4.684097650394036,-40.376018126826146,1013.1998325394375
4.88,-0.24382076025665136,0.26456229128816566,7.13530688151943,-0.036476776189139616,0.012985464215226354,0.027752709406986154,20.242561279434792,-3.6001513890813452,-39.888933878725275,1013.1974400179696
4.9,-0.11286016989697784,0.22494327505283093,6.76371706392344,-0.06304586293999886,0.003040477305774364,0.02938219682036994,20.168478338030095,-5.183339396825261,-40.0134779182176,1013.2060489862919
4.92,0.03453592799654864,0.22129244872716716,7.112498386725752,-0.053756323702651536,-0.004852000573588682,0.0258948427642551,19.578095010737638,-5.833378966495118,-39.892328103355624,1013.2158642412966
4.94,-0.023748370628393016,0.1096061701875071,8.031895711462136,-0.02795097489429193,0.02155596424229938,-0.0056496786926769705,19.325066293852142,-4.550000167785133,-39.74959343322694,1013.175994797048
4.96,-0.03796811609530718,0.282842491764958,8.800499053080916,-0.033922632099688446,0.04272124526520777,-0.0008288500087536414,20.436174339980884,-5.3634624794650785,-40.31366046295844,1013.1793867220152
4.98,-0.01547778353467616,0.13483366898340926,8.888195344181653,0.00542262196821666,0.07174259985410802,0.016251121463748703,20.09291728875946,-4.35032653472323,-39.267169915827324,1013.1652296394103
5.0,0.1449727907483257,0.36000469215138936,9.75476265648179,-0.015490201230268032,0.029268360502606863,0.007829920746962156,20.57468842047891,-5.141014523894972,-40.13385541352374,1013.2173279480072
5.02,0.17485635321189688,0.3709142883682403,10.60730299413561,5.556330641494356e-05,0.046738760426202224,-0.009128559816527099,19.977633532906065,-5.315907844541391,-40.21671349239075,1013.2048064658638
5.04,0.15136393710134952,0.08172883504846404,11.514565668965972,0.010960265834123352,0.057318227200091276,-0.034888101073649355,19.29741781966152,-5.0889787778728435,-39.758806881333776,1013.2097053503187
5.06,0.4899453990211128,0.12365931144104333,11.715612756021816,0.02291458032933341,-0.011176915431367604,-0.0014701224088742144,20.483064840502053,-4.621111619531907,-40.91825510118753,1013.1708100352326
5.08,0.47787379432291666,-0.05290718789335863,12.306192099614726,0.06420022738605699,0.04746706310772787,0.016606395041425172,19.814814695169446,-5.113710315377828,-40.395267224861456,1013.2348989624576
5.1,0.40843924426721184,-0.11828033010665964,12.779770185294714,0.06012875168696359,-0.008198161725380921,-0.030132105668182044,20.17100172871051,-5.248362351396853,-39.50946360065409,1013.186822981837
5.12,0.1797012297632054,-0.04956322066160944,12.869295096454808,0.08410021550165502,0.009779435845604202,0.005412696579825967,19.67627028576024,-5.099415801489436,-40.868710964531054,1013.2021641161423
5.14,0.3171627647308629,-0.19446667668908918,12.70043834150156,0.09446724661441966,-0.0044354027370707375,-0.0018847519286275434,20.822150855116845,-5.635927592250442,-39.44121290153342,1013.2156876932136
5.16,0.24094193392551305,-0.06827129934601467,12.504407712720653,0.024627011984654175,0.0004027632510232512,0.005367891782612365,19.5617175879084,-4.80148419885301,-39.24443171682043,1013.1786604048841
5.18,0.1554320562087447,-0.3268620191763394,11.915305357071873,0.039934044685335277,-0.020852711869563636,0.006722974094800218,19.831285122946912,-5.893363296922455,-40.184727668911876,1013.1872735128297
5.2,0.163356530488392,-0.19759990706265357,11.537629695281225,0.005865256281755098,-0.08799665955334691,-0.025645009884356515,20.05372435134866,-5.2220607271827575,-39.854093616286846,1013.201583435492
5.22,0.026727442939509655,-0.28799184142887874,10.874415534552703,0.0028541090792687396,-0.06218440923753232,-0.0450876677982727,19.45390883645652,-4.6203073955846286,-39.440456457574484,1013.2549494615093
5.24,-0.035695035819607424,-0.19964735330814756,10.220825184136869,-0.006334988526897908,-0.04684163247865825,-0.024361332632231343,20.165259764293797,-4.848475858533641,-40.23339459402176,1013.203622494857
5.26,-0.11199998723363973,-0.2878881482116224,9.350701216484255,-0.02740975916098036,-0.053505332788119676,0.0032031738021119412,20.805955238733745,-4.7048397135068045,-39.56611223973691,1013.2295272230126
5.28,-0.1965663433702701,-0.19679607931324386,8.77635712032772,-0.03944397309220245,-0.036936609699277055,-0.026250342926035224,19.754768919653145,-5.032522836359404,-40.33557439756534,1013.2213134629038
5.3,-0.4494691617163282,-0.1400038715416429,8.19855161579558,-0.032274950185028364,-0.024663518605353547,-0.03006120636465176,20.197571409515863,-4.415126909507242,-40.23880114666659,1013.2043602007299
5.32,-0.28617378980998687,-0.140602246938953,7.521774670822897,-0.0628600305065177,-0.019702164758840783,-0.05331356534853308,18.625282306980722,-4.537650401615104,-40.39966823216249,1013.1770160845674
5.34,-0.355076168571696,0.08425036810236489,7.14828230386182,-0.028398813440548357,-0.025574463429342865,0.017526817490141504,19.98053539975758,-4.7769294978761625,-39.8286764004026,1013.2177950722164
5.36,-0.41354616066690947,0.15697220659987166,6.871111549950614,-0.06746943328478472,-0.04629580595169583,-0.0015822682208141946,19.843478857036896,-4.536227111343228,-39.421015473717226,1013.1664377931671
5.38,-0.0855425804272891,0.2194304795332795,6.815932473678897,0.006290042980514256,-0.005970099000630736,-0.0031976100922697388,19.59075119879481,-4.624788222798212,-40.09205646605858,1013.2282175024735
5.4,-0.033044458443462016,0.371841177839485,6.8485967460831105,-0.05658051483404563,0.02377821268152635,0.0003333774096864056,20.540725234814268,-5.219731756673445,-40.6356245799562,1013.2000001061643
5.42,-0.009301464217321725,0.40744186669649424,7.324490362744944,-0.04077604343675983,0.004982394697940113,-0.007837495991704585,19.836878159188085,-5.671949455845667,-40.541353411143405,1013.142795529054
5.44,-0.049856786152948654,0.25288138718008735,7.74176569245193,-0.06013417898575482,0.049073925973502394,-0.024532322118164362,19.911261256453205,-4.789818937078688,-39.80270028931473,1013.1887898780993
5.46,0.13426606565852578,0.33730417463001067,8.678714224034426,0.010034151457466715,0.061983199947539105,-0.023117576108733585,19.811403562605463,-4.7269553845842855,-39.07794179330286,1013.2084789564184
5.48,0.07504059668399261,0.2284119235881489,9.299933573876741,0.009955519257815869,0.05096649758234848,-0.028511821860407932,19.041592064117463,-4.454764004430717,-39.8031375003428,1013.1904595225392
5.5,0.16410738927103624,0.2656103001785688,9.867876982883445,0.005938317414721761,-0.011275597326247916,0.03269481508830001,19.43400677996152,-5.468160637522646,-40.19344827532563,1013.2093001162199
5.52,0.09543568655422419,0.15926007774242903,10.441611080040317,-0.014501556617349115,0.02286739080219563,-0.008842293942576586,20.48054674306011,-5.453215529638582,-39.61690801657486,1013.1777995166458
5.54,0.29256985812411623,0.3234269648917365,11.088399301507637,0.028301021259578243,0.08153911717331477,-0.029118302853318248,18.945024676560013,-4.770049866846115,-40.11974931779337,1013.1684803525443
5.56,0.29110842677722515,0.1298320522234146,12.042312760749365,0.011798734376088822,0.025517675510503497,-0.010335809531248193,19.61684232519215,-5.035583494426543,-40.189142608682104,1013.1929710919391
5.58,0.16909174243225694,-0.0021709485030011084,12.382396160278114,0.07146350154456793,-0.012891524713630028,-0.039589041579698975,19.800139971855117,-5.942880805285564,-40.479229552847634,1013.1948313133458
5.6,0.28971466473000895,0.063930000092655,12.735191059394202,0.0637367204518211,0.04015579748495295,0.011069004045881462,20.871810933645783,-4.812445918122904,-39.295775577876825,1013.1870323129787
5.62,0.26381331315843826,-0.3440742320276857,12.542392287238686,0.05181011719116829,0.0034066378073393344,-0.03181691163390784,20.384301882748183,-5.926211457494477,-41.26960395874783,1013.2183458229329
5.64,0.4114169489655977,-0.39202310999127854,12.895977524419797,0.000386849271488042,0.012729744049868551,-0.008074832396871087,19.72141473647345,-5.472628275936688,-39.60107039986037,1013.1765958524971
5.66,0.2664006258270656,-0.16265223801713713,12.592644208130222,0.025573033050120517,-0.01574979107386601,0.0037934189939854007,20.652256848557776,-4.324159313569947,-40.23187246889877,1013.1996633121466
5.68,0.11232203769748804,-0.27259192649430974,11.954975125665213,0.052280884770787184,-0.02270001676319078,-0.00919118762594047,19.629742089749442,-4.0875604910964425,-40.205170365725806,1013.1945593994233
5.7,0.06326873476412051,-0.27248891028402666,11.502627035759918,0.053646936449086594,-0.03319066476445717,-0.014290940051106173,20.504549901867,-5.607828184235981,-39.15384242194109,1013.1618656809572
5.72,-0.032388433536196096,-0.4303727930565121,10.953931238707543,0.04058962386407705,-0.032539058055992366,-0.015194223158395519,19.32056137703849,-5.1646957687063475,-40.357065546100024,1013.1664193963267
5.74,-0.12998785792959766,-0.2815485253676067,10.193869720446346,-0.025573598366613968,-0.004057126094601939,-0.01570819448617037,20.53662891589458,-4.978688738460647,-40.34003457701421,1013.1928382203249
5.76,-0.2839333353096911,-0.042821441438492286,9.390174621436554,-0.00023561554195713173,-0.030185608346540136,-0.025224911897123815,19.796933177264506,-4.109386536209216,-40.06519711945977,1013.2320239999738
5.78,-0.2457506719311722,-0.10942023357850103,8.690103101736076,0.001904076695424757,-0.0780956106513233,-0.021738148390367886,19.485747879529367,-5.246434473912201,-39.793076307093884,1013.2037853962379
5.8,-0.345717874410162,-0.11148332909746635,8.008847636391554,-0.06255597392626845,-0.03151761941316939,0.01783610242716923,19.89142819346184,-5.238442011516639,-40.22092789114644,1013.1574873034971
5.82,-0.41956745144335683,-0.10090192646487023,7.521344648488012,-0.038683752446254056,-0.009041584125370296,-0.012887268553283085,20.13867208986011,-4.225637220768569,-40.786929465267946,1013.1295902386976
5.84,-0.24833479123203014,-0.021415070542751966,7.316242638550923,-0.03976450465713174,0.0027650515524690264,-0.025350998869689792,19.752625784737145,-5.187394576359129,-40.43284909044088,1013.2062610718601
5.86,-0.24643559890958325,-0.12097248287796457,6.478139481674236,-0.0551296542333692,-0.017901165390467877,-0.01884153776853159,20.276976752997662,-4.638899145516771,-39.35933307176774,1013.1894757303414
5.88,-0.4323949934941805,0.18583905213483698,6.780392275038731,-0.08694457352943764,0.026438414880227797,0.01464492256025086,19.708503058167967,-5.738571482556214,-39.962611605432244,1013.2140253193902
5.9,-0.21821245628154362,0.3026929232959073,6.9833073143204105,-0.05406678801623219,0.03400569770977168,0.00733179277579064,20.310186196965677,-5.085616372046163,-39.774456358148086,1013.1733856415858
5.92,-0.045653385656888756,0.10494545385580334,7.321415321947024,-0.04876250488020116,0.07824168848834455,0.006232785821348057,20.2211110310183,-5.829798419163202,-40.13071060358652,1013.1978042499571
5.94,0.03054424605109385,0.22423416693431875,7.700571495015744,-0.03718880338738947,0.02144839664610039,-0.008898050269910316,19.969538472646033,-5.527716890477852,-40.32974884808664,1013.2075234692605
5.96,0.10178723785178605,0.18425247956325064,8.101230710323067,-0.03535711221358716,0.03366732247418468,0.008960584732172816,19.779308843817024,-4.580399322423868,-39.1612152750623,1013.1814507272359
5.98,0.0777265993139539,0.1942368730330944,9.11312966106255,-0.02129473742307216,0.04230677708723246,-0.014127032889599234,20.075770397882632,-5.024952695543356,-40.09409592852554,1013.1816782885954
6.0,0.05932312878434501,0.26862293124930225,10.069102532124619,-0.000794125646939705,0.040195556999224495,-0.005192280626915506,20.27512687151685,-5.159552870276487,-40.22168493976356,1013.190505256622
6.02,0.09641294086461794,0.010794807155466685,10.325990450757132,0.02128358645763675,0.03062874306115955,0.020651900138421154,21.030899576365805,-5.374374811990458,-39.45192881682233,1013.2006535269312
6.04,0.28733121814926676,0.2228469778138396,11.38483522435986,0.017999148447952168,-0.01143817611128154,0.019992218249667345,20.46971021089909,-5.110328036620642,-40.361180179433696,1013.1893133199098
6.06,0.3229978373713004,0.16884774418248455,11.814362534317617,0.026034376729074132,0.02775444189660814,-0.015890570627301606,20.48799497490792,-4.849443416449653,-40.297363671887,1013.2088799267551
6.08,0.42809006527620974,-0.00547829449624794,12.333785124631705,0.04406347704018968,0.03417850094294829,-0.012136731314874461,21.544256097430143,-4.508541896769119,-39.994876657991554,1013.1799612962147
6.1,0.4048323409458774,-0.3035027080914347,12.50523477227986,0.009134507296853896,0.005586412808629636,0.008354382943767094,20.25797923838392,-6.312573342048401,-39.99986494795591,1013.1624320958907
6.12,0.258563403891001,-0.2266545536483854,12.753911759431434,0.05944203896594275,0.041847149647047735,0.04188513854708377,20.24232175565585,-5.415880587131404,-39.87019432604839,1013.2283395073623
6.14,0.10724024441504817,-0.06732265709447817,12.951868441390918,0.04910310059397538,-0.009101549474968345,-0.02979571745807849,20.352007537160826,-4.920451878905497,-38.95416545530226,1013.1765073252691
6.16,0.1450686332746332,-0.5200355316119729,12.611879443696214,0.046035223155252214,0.004531616525429084,0.01520173227344439,19.495517011205873,-5.049431557981143,-39.831875876823815,1013.1770311583257
6.18,0.132900613269392,-0.31339111252539925,12.381386469138862,0.0577403482906788,-0.026642791232835063,-0.016804330731883036,19.77804918179062,-4.798311878736637,-41.1890269813754,1013.1868839335787
6.2,0.01818167924507399,-0.4155336181568283,11.749967540224082,-0.00966704798634118,-0.02392270352088213,-0.0009309148246614621,19.746915366653834,-4.866229856936723,-39.83685052828422,1013.1893436221931
6.22,-0.09459908215438353,-0.21727615256617333,10.980236659893484,-0.02107044976294517,-0.040903993215741244,0.005459911433688949,20.323806988609782,-5.152433931496704,-39.9810600027552,1013.1800663271503
6.24,-0.08440797795305095,-0.34673654949691707,10.447589879618098,0.011742738584685896,-0.0222300424276526,0.005280775249835935,19.9129127188894,-5.263426597993589,-39.97827498782427,1013.187251322061
6.26,-0.22608638971192171,-0.20277698040506664,9.499849273117855,-0.006408998780785165,-0.04848694806307592,0.003903453755244035,20.06911171273715,-5.1227507448677505,-39.877026345301914,1013.1866047553715
6.28,-0.293452092543018,-0.1352941536411764,8.82982456846551,-0.015002688770395508,-0.036566410132636756,0.015554406063043208,20.54372731007423,-4.425628825088628,-40.0143391438374,1013.1906963865404
6.3,-0.23996276531456584,0.05516860036125246,8.002158600092399,-0.038631804118072155,-0.0331241910457468,0.005475228554887348,20.431575369352068,-5.366003966452857,-40.026306046527694,1013.1398502508202
6.32,-0.33473515556396305,-0.07729072982191146,7.508442144051508,-0.025238588653990927,-0.03763690864998076,-0.012362589187042746,19.919139498479378,-5.031403361571978,-39.693477895114604,1013.2244175261401
6.34,-0.2750465337889482,0.05564665160645062,6.990905269106899,-0.026588575763478606,-0.013189318199760046,0.033123525851332804,19.665002451560888,-4.90832889300079,-40.27104039859725,1013.1836542337293
6.36,-0.25824166261769516,-0.05655824187070849,7.0115758380031625,-0.03943471665740389,0.035318659194667396,0.033153984392298,20.567637365826595,-4.219824535062771,-40.47384316781959,1013.198012452389
6.38,-0.36766714246652904,0.2791163663720971,6.639174271247955,-0.05511790558950525,-0.002268412865443256,0.0354590159182184,20.386945590454932,-5.150154129118157,-38.488109273688806,1013.1586379731693
6.4,-0.25406810491857373,0.14209372764058392,7.074183002477186,-0.08970661356704579,0.02384014757581219,-0.011793559599378573,19.196871590852307,-4.52059667199452,-40.357928721890616,1013.176579994775
6.42,-0.0014458302552367852,0.20643197016408926,7.2484185648681745,-0.026831672114358315,0.051946918766338494,0.025350026274255633,19.84342303054586,-4.384010298367489,-39.949928543769964,1013.1723536826736
6.44,-0.19158607911196499,0.28815107668007983,7.93204574623405,-0.00979278197208228,0.05925349698995647,0.03316532213071225,20.082757731008382,-5.031877132495324,-40.74783012543768,1013.2149944752902
6.46,-0.21246189133379315,0.14371050825260787,8.477369326004524,-0.011196515465406488,0.04404966235658031,-0.0007817473425021509,20.389414858560517,-5.105359489538381,-39.941765792474285,1013.1736837278632
6.48,-0.11234923670044127,0.31364899540686403,9.337027262152473,-0.030027342905592613,0.0007613839972843844,0.020143999532208016,20.455050747469887,-5.164526836024108,-40.466612775344664,1013.2003615997388
6.5,0.14673865623892884,0.36002139585961235,9.91961620367081,0.013475887873355354,0.060334056372969326,0.017674667093792687,20.141953000587737,-5.127911567121291,-40.22123647142501,1013.1719915909465
6.52,0.20787455140369224,0.2485284050040448,10.320263623146545,0.029645088517471083,0.004039672883970655,0.05680354773993071,20.292623765679426,-4.572880069711584,-39.47746766711444,1013.1757476212069
6.54,0.24110964213172004,0.002530177560258945,11.245218046370418,0.055264008661067524,0.07321407862101778,0.05833221476654102,20.032068401189076,-4.884495011372243,-39.763995215810965,1013.1796889966961
6.56,0.4064888168276335,0.08108130775615248,11.687840238896813,0.016705156811874754,0.03983790879493629,-0.013641382852030228,19.66307415590972,-4.882355145415065,-39.71579523771259,1013.2100769025366
6.58,0.0320735108054096,0.09383485460539032,12.2652418001511,0.03768730458421794,0.04678482014638968,0.06925020333713242,19.869367804479374,-5.562611755189917,-40.88560241919593,1013.1464029468194
6.6,0.33442776335475105,-0.24323073368957335,12.889853813876966,0.062498266837626736,-0.0025913730448734983,0.0007166159028365975,20.009495593320054,-5.483745038687617,-39.0815524150855,1013.1576867288945
6.62,0.4279300897244765,-0.23448929242991584,12.899710256919468,0.05104953785017672,-0.027910623489535186,0.03820899560431355,19.982660374990704,-3.92827658761151,-40.59594065547094,1013.1448538966862
6.64,0.11888275581196239,-0.10295849009659744,12.65202218789926,0.026767810495408998,-0.004153978046462587,0.03750650066659502,19.057213547778264,-5.088912862644345,-39.235719592853066,1013.1618499576048
6.66,0.13899864179673524,-0.2152265601193858,12.372423552432007,0.053533678323835196,-0.02196103337737613,-0.0023876709359588466,19.801258332535284,-5.38738599778918,-39.48922806700926,1013.1671679989762
6.68,0.035888302065479494,-0.23744161309337108,12.126457042258824,0.05009889481509308,-0.04170201601057746,0.026751914386822305,20.028102826544576,-4.284450417205352,-39.711333629107656,1013.1509103749182
6.7,-0.051044600823740516,-0.11158405954777154,11.39087173447024,0.031148520541243545,-0.03875762410409221,0.014029665002177658,19.85931500404715,-4.859095725658224,-40.42749239045419,1013.1683170450677
6.72,-0.06943587184891975,-0.25087790487403694,10.81370261644458,0.022797926177833334,0.008859893546232844,0.026496864948163636,19.876588102244206,-4.710922541567739,-39.92420507759024,1013.1425057103813
6.74,0.033052068918407715,-0.21343635323925222,10.232801121425597,0.001092543644500561,-0.032915224118342745,0.01919281859604074,20.243995685402293,-5.069023537640767,-40.23546070532243,1013.1622402255247
6.76,0.008048051977889714,0.027902170243206015,9.607297104723093,0.023298917036106,-0.028615762948457517,0.03761773182597872,19.46052140647568,-5.159336545288402,-39.98548021424735,1013.2064084079982
6.78,-0.26423940667449397,-0.21322065136713647,8.796940562779639,-0.036420071308487345,-0.029610086463345498,0.014256470657895048,19.185978893024394,-5.084793186248645,-40.12493612954278,1013.1902717614056
6.8,-0.08060202733846361,-0.20824225997359722,7.702950816832875,-0.04113567786989911,-0.010861606841703609,0.008398223657323253,19.82591510458166,-5.691369085149313,-41.019305253286205,1013.1857493534435
6.82,-0.2909782498525796,-0.014216895629663322,7.544115281027182,-0.0383059518682388,-0.03567263294544957,0.03263782056072356,20.382057202750893,-5.043963704709949,-39.43910792450771,1013.1617444288744
6.84,-0.12408787001667551,0.06194131758307676,7.106323878586836,-0.027662272069282994,-0.062384190731759784,0.021242992779206403,20.84377651974332,-4.851983461478691,-40.04055357827468,1013.1508783008192
6.86,-0.29489192986825596,0.03927576684741624,6.925221790619834,-0.07906182593832524,-0.013140788389406105,0.023151853717719183,20.39106411954737,-4.074768383078123,-40.24240019975112,1013.1586168784894
6.88,-0.2406184597527583,0.05683530808723605,7.058351266962865,-0.0761072714167224,0.019374240176395253,-0.005929242391478334,19.265868120065576,-4.957000467497393,-40.28016361641488,1013.1803358034621
6.9,-0.16939654526774756,0.44912905465672964,6.647344709593832,-0.08830739596945197,-0.0039451581835539245,-0.014724915740470551,19.883816380311615,-6.1670885211051525,-39.820770211816615,1013.1983635355946
6.92,0.17266184368987228,0.2951917336116671,7.188350709715293,-0.04156249177003528,0.02326402073916332,-0.006380645121756946,20.128317190540766,-5.04699271639231,-40.44687816914723,1013.1988473483427
6.94,0.009750429645940514,0.21714731802479276,7.8449946306329394,-0.05659347164056529,0.022613036511024344,-0.008668801421897285,20.088795558461797,-3.630247933445847,-41.12758777923702,1013.1932122472497
6.96,-0.07152289943188435,0.39159197301455273,8.12749981777676,-0.03177868590544412,0.07385591903905578,0.018230650044344376,20.269652276471437,-4.56681688250748,-39.79643509839586,1013.1656488627186
6.98,0.17073506565139357,0.2798574773578373,9.285322695713457,0.0007930694395913256,0.06341829836456281,0.020775491396467314,19.54147552676962,-5.4054444719042944,-39.74044850102159,1013.1806909966481
7.0,0.10764440787282586,0.23798662393532916,9.865253491905088,-0.012830854415657103,0.06303081241287918,-0.0031026057906479903,20.032471543775372,-4.704446742784722,-40.09981591233882,1013.1735731493992
7.02,0.15580780531030294,0.27546230984576353,10.683057259371061,0.017060134813109796,0.06086118431885104,0.027362569985900805,20.210161414888063,-5.371006712444871,-40.57395143759501,1013.1757762047301
7.04,0.3437308636634421,0.032231707154964345,11.16961947307686,0.018100925550051047,0.04307034895115079,0.024862723204016543,20.41283547665183,-5.676903759773428,-39.95553222955536,1013.2203425579393
7.06,0.28817839271189927,0.12872495758083374,11.985705871280981,0.04766964159836289,0.04039955702162091,0.0011203520362963295,19.597140916693604,-5.174184681617036,-40.73226618415679,1013.1441599952599
7.08,0.32721454556688384,0.2109274450806187,12.503254509904387,0.05171895762206069,0.0030876481383038668,-0.02141163317415785,19.82742156637855,-4.95423678038057,-40.51361529834383,1013.1745064636816
7.1,0.2962328980981983,-0.008814090873249317,12.698101251906028,0.033714151891265316,-0.028277989856263473,0.025327193101211908,18.64809115996333,-5.936077751216698,-40.375348968252084,1013.2032349781439
7.12,0.30544458220466175,-0.16463390142649276,12.83924031918962,0.046528301353404536,0.00614114858336604,-0.008582838074261735,19.689269016211114,-5.574579645269318,-39.578030464554224,1013.1494821700993
7.14,0.27415742204475013,-0.2413233785475719,12.797413238078333,0.06998923049084445,-0.0028892606038426827,-0.005992281902681902,19.737792553514478,-4.994832218408822,-40.18130547521846,1013.1657250514946
7.16,-0.01671740029481844,-0.2832701008736266,12.394979367687153,0.053108890028382934,0.0028963267902539468,-0.016427173994165677,19.49020774591628,-5.204086587994477,-40.22393320588823,1013.1678192300486
7.18,0.17783476064929304,-0.30403503911082536,12.09941042629132,0.0105864209837669,-0.0004444831657870532,-0.028512342425523876,20.082806075116327,-4.802594364426954,-39.022653742294374,1013.1737342055588
7.2,-0.05981193819901551,-0.3353141935859296,11.550477377009576,0.04250162383805146,-0.009050880018768331,-0.04112849365215529,19.972027283977365,-5.607334163654281,-39.823768751405645,1013.1460808568079
7.22,-0.18103958490255895,-0.2061020386172003,10.971882737707073,-0.0032859848144906334,-0.06644929616029004,-9.111332382801332e-05,18.870393061211196,-4.64294312572335,-39.83050274476259,1013.1897057212068
7.24,-0.11553758383590894,-0.45254606460346936,10.335973337729476,0.03451692307743565,-0.05665103576471924,-0.02935896319650616,20.107753984650877,-5.591879548530097,-40.18485037260439,1013.1909257456502
7.26,-0.1672925152394151,-0.1569723774374145,9.27521988701035,0.014215315118605673,-0.03999904914809635,0.04661125203150827,19.535837934605485,-4.178632849031185,-40.29818583381839,1013.1875675065004
7.28,-0.2999961006277086,-0.22980884807234198,8.686874987398017,-0.012608518115866114,0.00414926926043107,-0.037131736507765384,20.242844479595256,-5.857879142189159,-41.093203220008576,1013.1597925265141
7.3,-0.18800486297811225,-0.09075920504221247,8.268862575271452,-0.02624460574589936,-0.010848865644469362,-0.04132798938712631,19.359074376135666,-5.546277135191707,-39.51562973403822,1013.1787302158158
7.32,-0.42875341418813323,-0.16969532647446098,7.386922037350744,-0.04270630725933793,-0.009483256247466803,-0.006683784197771485,20.01500326926547,-4.791314598484085,-39.775845147121814,1013.1588111952086
7.34,-0.3401513475640394,0.15090532132913295,6.972181340008393,-0.03167087359530043,-0.029044723689239417,0.013060135978468633,19.858418335556745,-4.167883374251181,-40.08958299660671,1013.1699480667846
7.36,-0.3440494783962076,0.21651080205922224,6.893484176588614,-0.056529925925675656,-0.027033058352388763,-0.016804747910455956,20.151550942475165,-4.842478481941915,-40.06861335091813,1013.2194693585434
7.38,-0.2583829693913056,0.2560340626177299,6.942577593287983,-0.04518993900861571,0.018917683644130347,-0.007150681314019537,20.062348638825675,-4.718571039908804,-39.631927868869475,1013.178113907552
7.4,-0.17805756406730872,0.06666913486836637,6.958544359448635,-0.03011413848436871,-0.006562375565940004,-0.05589207867507726,19.872417912489272,-4.991231549163471,-40.77735503653992,1013.1522494684802
7.42,-0.24601281920923765,0.34541949367946906,7.476360312059496,-0.05345252714561268,0.022022612729343565,-0.032921894136407955,19.231863842977877,-5.513199227057597,-40.294940665776906,1013.1794067068132
7.44,-0.002949860092913578,0.3308613649285717,7.884877779598931,-0.04655121009624805,0.03415287239103239,-0.04111805959732512,19.261396018269483,-5.245069174119689,-40.56815143144627,1013.1485640814788
7.46,0.005503790396729787,0.13947181807333606,8.491011987728344,-0.04797499331957529,0.07567357578464914,-0.057743211025247175,19.70805653045389,-5.605954859990638,-39.11424535875663,1013.1514197921497
7.48,-0.11535934670738128,0.2883422541368887,9.147047813704065,-0.03372394928076595,0.04133521199723807,-0.017620929888087694,19.995860058035205,-5.639354983888436,-39.56217223407335,1013.154377537281
7.5,-0.05203148245844508,0.2997282174704396,10.159147965051881,-0.03656790622883059,0.0012150072285476918,-0.06485655243220867,19.69587602640044,-4.7991255403401265,-41.101346320567686,1013.1661138109561
7.52,0.20355089430749115,0.27484255003663083,10.525295408164622,0.027031070138552743,0.05851805100968108,-0.04640445389031441,20.312605965289734,-5.561588991043981,-40.75688081331999,1013.1935393799118
7.54,0.23077399589559666,0.17914607067301713,10.954732678495171,0.06026597454674121,0.029834896940114645,-0.03058616990655792,19.86038954039416,-4.840222996638319,-40.066172836678746,1013.1861679639604
7.56,0.2747278225773199,0.12258537887385655,12.104279472013605,0.06273393416584,0.03730105185982603,-0.036271461733595314,19.517493637610244,-5.650911376110549,-40.236220106036214,1013.184859906565
7.58,0.2965587084626816,0.16699310353275096,12.274328861862518,0.009694706502570365,0.025057245732107453,-0.011443493178431274,19.860951853506045,-4.8518084899416225,-40.66219110403844,1013.1522215086883
7.6,0.3173903598626868,0.06717153389808557,12.679351615536913,0.06204991924588162,0.009976769802392184,-0.012909526487853477,20.112929918158276,-5.244341284481481,-39.02761888117475,1013.1631737128913
7.62,0.3665512305289492,-0.41371818642641867,13.000512788013893,0.07834346341988468,0.018946337612160004,-0.000719554799055902,20.162442359412292,-4.296692233174678,-39.84373004300871,1013.1792400221377
7.64,0.12055034220937808,-0.2223567059885175,12.516522821027232,0.039978162921661224,-0.04002636329634006,-0.003048866395066843,20.939189565996564,-4.838140552210468,-39.762591838568454,1013.1610336002922
7.66,0.05978213368564542,-0.25870120629350946,12.336734075282148,0.04727030123630213,-0.03162924907734048,0.005290122186350325,19.66554532999829,-4.382108553502929,-40.34600747461611,1013.167832671194
7.68,0.001845107999603468,-0.45384862857874353,11.881348037759558,-0.0016321988773036408,-0.0181904412250865,-0.01692492651022141,19.9632606692048,-5.377823358212597,-39.638862926411,1013.1820271738505
7.7,0.0672816705008832,-0.28811523448687143,11.454235313373598,0.03472398597415635,-0.052732545225634836,-0.010111001871165544,20.21306197340971,-4.971928329877916,-40.19021638049101,1013.166024546376
7.72,0.08768506651802896,-0.17285740548360656,10.98031914895662,-0.0028649669544598792,-0.07866495847981178,-0.005179990817131996,19.988288520399593,-5.490543579058139,-40.14167158685375,1013.1773211917821
7.74,-0.15283040327399366,-0.38788194024162925,10.264627877114828,0.01025936203644548,-0.03623462820058918,-0.011746238600607714,19.749690927005673,-5.206802621372209,-39.69449902008737,1013.2044545691203
7.76,-0.4258605999868276,-0.2095322886096395,9.475441426206373,-0.03749072012199277,-0.027143842456893122,-0.021634828316915253,19.22537141182788,-5.131052111372314,-40.81449878253015,1013.1689628240204
7.78,-0.40104477043151665,-0.2834225432877313,8.493711459362117,-0.007549063144681869,-0.047388728447272745,-0.01939733048176921,19.744582720473492,-5.362929110343569,-39.20148607007451,1013.1957867561944
7.8,-0.35441172102451174,-0.1956451859797155,7.700128727627694,-0.00889900910608971,-0.07966776168813813,-0.02810687301244879,19.4631487936411,-5.607751429422848,-39.908805392638065,1013.1831874013461
7.82,-0.35030878630056356,0.09074282796262678,7.5066133094812,-0.05418925937309266,-0.017751804553458362,-0.0022841993013833616,19.136696659438112,-5.706758661826326,-39.35952789560979,1013.1424551601302
7.84,-0.3402958354122563,-0.036213567366995374,7.0247524375562,-0.06797980425150953,-0.0544867222066477,-0.011515376963737447,19.602160579164707,-6.169874057853699,-40.53770987830941,1013.1495572594148
7.86,-0.2817039526048152,0.13816855494309938,6.932046113571422,-0.09223482338743412,-0.003193080192322617,-0.021779060844036725,19.476454139616774,-5.528173231751729,-40.461582562014094,1013.1547280823386
7.88,-0.28489887543961756,-0.027046801563378048,6.921212858648375,-0.05522960710291715,-0.014609750518378003,-0.020607387440185455,20.291893272646472,-4.686253051664078,-40.580950110799904,1013.1541033016614
7.9,-0.10101003147769039,0.4043763685872097,6.977566665923345,-0.059184704500389734,-0.00774593599659178,-0.030388314443154707,20.300545918707147,-5.799249266006641,-39.87485116366758,1013.1691942050779
7.92,-0.21282525481501824,0.3227726312035147,7.391036186300337,-0.07323678452206181,0.0179531394073561,0.014603029081446907,19.54806035520956,-5.684061423126653,-39.967008349040874,1013.1830928809616
7.94,-0.16160992378609285,0.2721258718999741,7.790740388331196,-0.025166980170190985,0.03278248024252539,-0.00217527290107874,19.86988568471844,-4.104550714383542,-40.23220590961559,1013.1957031683341
7.96,0.04709110741530803,0.3575535937865823,8.444248683535072,-0.03308709134237879,0.030931168994464187,-0.019762665062751494,19.07087866894373,-5.318248024924127,-40.50703459644264,1013.1765635017745
7.98,-0.07972892836880431,0.14979004961918976,8.958229349074946,-0.03394921353114751,0.06020322362073454,0.014915144601454084,19.752830024908654,-4.8394769954175825,-40.63329813486542,1013.1612864088789
8.0,0.1827968321132601,0.3815278427423781,9.78305828792527,-0.011091448112809137,0.04107861243082333,-0.011208976195887479,20.199490950351173,-4.678841426749752,-40.02424195023533,1013.1283551751274
8.02,0.21503814197305046,0.1868365451046713,10.585586075993092,0.03386058513683479,0.06803297548986806,-0.026874202149658414,20.412468944807053,-4.66873693510936,-40.2327933897943,1013.1712117915083
8.04,0.23812647868241182,0.14101298247329355,11.378340293617704,0.03614642258018929,0.049438797315063274,0.02293111045566864,19.643476459154343,-5.76115711530403,-40.34280349617913,1013.1701154038739
8.06,0.44389744464971154,0.04429667569256413,11.804580141952394,0.03162683406646486,0.02249728723914421,-0.00699431349960774,20.52592743026376,-5.115529839949745,-39.226455256934194,1013.1730585750707
8.08,0.23713620958623144,-0.038433175967114874,12.421158864865847,0.054598496644397546,0.00947254207230452,-0.003204184060878742,19.242154039243264,-5.809113634759196,-40.041162839096366,1013.2113248059541
8.1,0.5008641929640769,0.014035204069860613,12.623293730098144,0.024334586687022732,-0.017499076262200874,0.0070039402944824455,19.376186100428104,-3.7768410705448385,-39.364978533036535,1013.1938119309239
8.12,0.24924312462131024,-0.10142200603772002,12.786448860185592,0.05054873843595415,0.008954189533802741,0.0302142755094958,20.35483093281894,-5.7974376320078,-40.26662609134135,1013.1845012183651
8.14,0.10395918780410979,-0.1254380363644469,12.881289608489675,0.052060809146163844,-0.016460816674313407,0.008916331648627688,20.835560614281622,-5.52392010943491,-39.87761185810067,1013.1493584573985
8.16,0.18397125107520576,-0.2431155724876727,12.225522101739937,0.035844622453326466,-0.06873287513952386,-0.014347269040870305,20.246715994091847,-5.520300427420752,-40.02773800812817,1013.1581401050161
8.18,0.0035529737564629904,-0.22731879019832904,11.92706887911616,0.04723482885793791,-0.04258549694282239,0.021594075981823526,19.979828806732993,-5.74833023836144,-40.84881115475906,1013.1663031078614
8.2,-0.036785580997331105,-0.33941841470260564,11.351027947261041,0.013780593521735371,-0.05847153030384587,0.0020559105606149097,18.902408126738894,-4.323703045121727,-39.285830846868045,1013.1524918575197
8.22,0.002893658654927231,-0.07475999858370164,10.564331240076765,0.02860264178975585,-0.014975272450999527,0.050506959225563156,18.98877647197826,-3.788776049458252,-40.06757680351621,1013.1778092904998
8.24,-0.05413825058502807,-0.4360181959256209,10.084260034669658,0.01730383710884139,-0.08366130730359006,0.013668547678615944,20.064704768447935,-5.2378745596563085,-39.62679089018352,1013.1747381769843
8.26,-0.2379073855962862,-0.11707865012232951,9.546415384266274,-0.06460985929215612,-0.07843275106040502,-0.03012133740954512,19.820968665214412,-5.660211573422205,-40.37601436123078,1013.145633844139
8.28,-0.13190496966583765,-0.05504945048599216,8.662893731988607,0.005399886435968906,-0.02428943143229876,0.022557564298629235,19.44708240892394,-6.118462749363011,-40.082422190789885,1013.1911363341819
8.3,-0.15535727294279805,-0.21366986420830536,8.07631275541385,-0.09034191392167887,-0.013315586569468026,0.05507229573270353,20.032766290415026,-5.122054359261051,-40.43342617996168,1013.1690462066762
8.32,-0.15090572189471338,0.16593082560122263,7.661842896179249,-0.050846642649912024,-0.04677085826194726,0.04840496428094811,20.057565683753904,-5.1581827115807215,-39.382000758618304,1013.1322185770651
8.34,-0.24651563197421128,0.11759124293872102,7.294671762442096,-0.02473439193814588,-0.033930681034431844,0.05414521937600858,20.472207934270138,-5.325648063180072,-39.84429532627466,1013.1655731428331
8.36,-0.14921919369433898,0.18906120672432192,6.852767557605022,-0.05546009704148311,0.002955642201779265,-0.0022986626583089143,20.06830114150635,-4.889312373011886,-39.816473236659554,1013.1720241291184
8.38,-0.4418040851547752,0.1628772287453137,7.018957698150597,-0.07922505607080439,-0.04340246996243996,0.036838577637300626,20.614197184167192,-4.802413428592256,-39.32090792644751,1013.1856558472288
8.4,-0.23773464739487898,0.19642199662585258,6.9706494498796525,-0.06942756704909116,-0.02177302397136395,0.004581239531168832,20.003997014774406,-4.83845837103105,-39.421829351550485,1013.1592504719375
8.42,-0.23192404987922594,0.24156650386890288,7.151406489919827,-0.02167828134868851,0.021176671731935357,0.023857451210911103,19.942332502596333,-5.1580624359842435,-39.617328731931856,1013.1823587653489
8.44,-0.06345554172580145,0.32942891579695144,7.667198629384109,-0.07265744590740746,0.06744624269365286,-0.005813303560220882,20.53215609312359,-5.550810914787131,-40.71086367351873,1013.1693428397355
8.46,-0.057941368356409804,0.44011757028998244,8.142658500810118,-0.001507861685845168,0.035100732238858526,0.006953178728635235,19.510779559979284,-4.667083451096642,-40.34783955975834,1013.1390989078192
8.48,0.05721949442883638,0.30890341430011226,8.930710260445402,-0.013536536339088315,0.0504478938911347,0.006435600621293126,21.40722372663308,-4.993743120289235,-40.50194406800568,1013.1368966645304
8.5,0.33204514960166664,0.17213040625338238,9.756297496788845,-0.023847906608848526,0.07267578545128024,0.03797110560285233,20.18762873908337,-4.555821237582675,-39.6362331531871,1013.187451197403
8.52,0.18781084395838432,0.3016777288928138,10.676607414401317,0.0007721929121883037,0.09056685272199465,0.035974917001958547,20.190414626418836,-4.604962225263884,-39.914674029124974,1013.1887196835677
8.54,0.2942499593932511,0.2535350086176145,11.513376496980007,0.0037431968830523195,0.03227836453922727,0.025378688612905983,20.2625479869863,-5.710881034523558,-40.695256216815295,1013.171058184608
8.56,0.26184290094236107,0.1589281900338933,11.656314090479508,0.05155185931360495,0.036111696896402104,-0.007362683346533935,20.93856823766582,-5.717111103728802,-40.09437210650562,1013.1943141344236
8.58,0.30692828291138674,0.09418185495993982,12.40190789674503,0.056864952470357444,0.0632324441758068,0.013138874543578228,20.396253705836305,-5.377770359370264,-40.74705616785939,1013.1853321969809
8.6,0.2954360439552759,-0.08252467010876309,12.507087958011828,0.013169603137236682,-0.014993135785080996,0.004098800667048555,19.19747201049804,-5.528132704145334,-40.02657824403488,1013.1776725745896
8.62,0.31661867614143707,-0.21991160776119828,12.875284748554291,0.04182949405102684,0.023691147387543098,0.03598904485165488,20.70173519238375,-4.62237411201195,-40.82768625199359,1013.1455737702254
8.64,0.348191585855849,-0.2774321935688305,12.737198754582902,0.031850649289548824,-0.029735376376511746,0.04166023810566406,19.829551710277492,-4.824345162006042,-39.735586253307694,1013.1982285750206
8.66,0.3417186927360579,-0.4057824283849001,12.24984528352094,0.07111155199248856,-0.019239517236190114,0.038653845321494955,20.053577536419663,-4.450408003107345,-39.81101868698296,1013.1741260286442
8.68,0.14213950197925854,-0.2549439101514514,12.26078427706266,0.01152367977626136,-0.036723580435439586,0.001782170121699917,19.360373013912366,-4.801756591294541,-39.04602575332656,1013.1554832245077
8.7,0.09734469238757709,-0.30587841863276144,11.482605649956138,0.0614738447083244,-0.05961108173277163,-0.0386103225582906,20.26310100906195,-4.895675209063316,-39.57606335525133,1013.149634599894
8.72,-0.1518961222651764,-0.3417319531776276,10.834288622297997,0.01774033284389508,-0.0661508628475781,-0.0199289731070853,19.674312854966225,-4.4001351098279144,-40.21145712791125,1013.1679356756302
8.74,-0.11848413369160453,-0.5747870367170773,10.02553683899946,-0.01697202644938654,-0.04407744778064881,0.0430119121100724,20.050084818996737,-4.765136330132476,-39.59096495336276,1013.1291788183032
8.76,-0.08166166908250316,-0.3679041294480437,9.33585780780396,-0.019812145358400698,-0.029694948502470262,0.0056658433321773,19.85795049731961,-4.965949518281141,-40.69883194047259,1013.1763934655071
8.78,-0.14404862032876095,-0.07975613041777421,8.769809908050252,-0.03443860444960212,-0.04908354835818295,-0.0022660125703283917,20.962506400867927,-4.259773483034658,-40.48123630184054,1013.1431285837061
8.8,-0.24994707546540731,-0.19491658361805722,8.018257591982097,-0.05488163065493418,-0.039048586544082754,0.0446089109145741,20.991130150072795,-4.942409558423605,-39.83342873396244,1013.1694121621765
8.82,-0.20589650159424683,-0.020937367688692747,7.547759572015015,-0.036629124944181767,-0.020447718161613768,0.0360197348093465,20.023256585107372,-5.152170302458961,-41.07912483137396,1013.1513675932528
8.84,-0.2503803017874017,-0.12102632835333865,7.149807120691277,-0.06979966363713769,-0.04072134003851316,0.01012404792043007,20.03198885568443,-5.418911629388825,-40.018580392466944,1013.1563116257455
8.86,-0.16553143907697604,0.23581785427795587,7.061237496143164,-0.09272168671119813,0.005424784438971805,0.0026475240100220145,19.813278516825243,-4.648487270477294,-40.51013164605921,1013.1462618025447
8.88,-0.22478832666165952,0.14567224403725654,6.76450189208553,-0.05749486583837703,0.019526387917660818,0.004720466797431036,20.553003145751394,-4.381474729078765,-39.94934647242337,1013.1579754113764
8.9,-0.2415138240891347,0.24714865209607514,6.735301778587682,-0.0836099497431153,0.0675233756937557,0.010723595855248257,19.83554006483331,-5.025293700716715,-40.53886817902363,1013.1987875909203
8.92,-0.11163939855357914,0.49508536576103324,7.437099585979754,-0.05725961363645113,0.019269255937758245,0.036974743369689256,19.78933136267715,-4.346042188110081,-39.7878759312724,1013.1885011925409
8.94,-0.3684375654238204,0.4420198662239395,7.706635456399314,-0.05240941306850208,0.027286795337707535,0.012196974776459098,20.489296431832482,-5.985007515985788,-39.990336288166304,1013.1676895790999
8.96,0.03749212720177094,0.26934238065788707,8.531927844381494,-0.041512005145601494,0.059194651433668394,0.017027245332068848,19.730850452341674,-5.027726687403957,-39.299817041559336,1013.1598941146887
8.98,-0.2910060038976709,0.23144997402693493,9.121436905482797,0.02758476767356019,0.06481124143467429,0.024641212571989708,19.981122482775735,-5.020047456052218,-39.99663273294919,1013.1770840238139
9.0,-0.02851867915928208,0.23072026741515927,9.790329370469486,0.0011282313433911948,0.03929825693246576,-0.02339352002048836,19.209344609244503,-5.3634971862036736,-40.38432140248074,1013.1825994078821
9.02,0.24995968369452207,0.27022484750196796,10.608386045601492,0.0173419145381491,0.040365904517830654,0.01384142745889462,20.352095172561583,-3.8080694810090634,-40.12344292791364,1013.1432036323558
9.04,0.300623661400908,0.15089752055305006,11.547912906324035,-0.01144028222176107,0.05463795076655451,-0.008398039764518205,20.970433469590933,-5.0330963163443805,-40.672118198508365,1013.1580512226473
9.06,0.1688269559207922,0.05393782268876555,12.175188397144142,0.021148092623696196,0.019896746556377163,-0.05406953020716984,20.360612686399897,-5.203865385802216,-39.79693137264728,1013.1229608354087
9.08,0.22814674992780937,0.16635008937834797,12.353390946775946,0.04652244887393073,0.01858065998864996,-0.047537188583013285,20.730899583773652,-4.987018943283248,-39.70507487684237,1013.1816620422053
9.1,0.43188847477308234,-0.0668528462707638,12.687198137883012,0.027062247556497377,0.017242705066116616,-0.026542692117872607,19.576948931911335,-6.001406869262915,-38.76540198165359,1013.200300485154
9.12,0.2233832563868526,0.10294621825558975,12.96551620890477,0.06806259329177325,0.02305829967291148,0.0032619735181581297,20.1181621410141,-5.379933962672458,-40.310917995302205,1013.1604016524925
9.14,0.4559528635414312,-0.1815385941295335,12.630012597270966,0.02506043081841384,-0.021461038052877038,-0.006239594524495523,19.528420037815305,-4.508380015277298,-40.133897286837595,1013.1160997975019
9.16,0.1767873076580887,-0.06370426411664273,12.574441713290799,0.0395140299059975,-0.058136653818867,-0.005947739338521019,19.88611722720933,-5.314472677466387,-40.28787926221911,1013.1705778103316
9.18,0.15198111147646662,-0.24290682903498445,12.117660301134295,0.026804629339278387,-0.07020314883779859,0.028302333754153922,20.386105738676253,-5.4144375814001355,-39.893943149434385,1013.140118216677
9.2,0.20007744363387986,-0.20123748298515703,11.620441988596099,0.03267567580226273,-0.06563911105286949,-0.03713749734304563,20.05091030655165,-4.3452371817427995,-39.80915473276019,1013.1447330111667
9.22,-0.023706959727279785,-0.37019428787642894,10.7893683371616,0.005596426197124995,-0.07275217865841148,-0.0132971468786483,19.29367948869939,-4.329872799524086,-40.02668742221425,1013.1703315277957
9.24,-0.20993085751912055,-0.3646010765413123,9.94756457669659,0.0008487891367968316,-0.05269795023812203,-0.007602231662297434,19.342485447231123,-4.741504763919429,-39.45683704156348,1013.1626910825103
9.26,-0.18666336074028927,-0.1972017869771293,9.12305278390842,-0.010989263513774487,-0.07338333813767606,-0.029304834879194913,19.309418034254612,-5.227558667019333,-40.30848975187739,1013.1476378244932
9.28,-0.2342065577894867,-0.09298487131155782,8.538018724997555,-0.033093982782059446,-0.060543923490836836,-0.014843729953856933,20.245726294969796,-5.1197355325581615,-39.50691297605464,1013.144207887348
9.3,-0.40758221396506794,-0.12442833341169983,7.9778429503816755,-0.019687385244681513,-0.05593256741838829,-0.04817932656918586,21.031947267828333,-5.4020749807874795,-39.73075107317946,1013.1595167211044
9.32,-0.3201191046851248,-0.1856358689627446,7.454481533675317,-0.033757894642040986,-0.04068135670439431,0.011311565835460252,20.681229122000108,-5.4973865595143225,-40.006014959949475,1013.1486106889497
9.34,-0.3736761820865272,-0.11798362198474369,7.38610351696637,-0.04701363152836432,0.0051611220522088,-0.031158424651485946,19.05200740042697,-5.522208244154216,-40.15746832037857,1013.134415257328
9.36,-0.19312628918416552,-0.0507663341765935,7.029037253300038,-0.057723529205673446,0.0038698860593233183,0.0225314622462497,20.710537969034892,-5.309027203392604,-38.786666120634315,1013.1497487363704
9.38,-0.25026305493884393,-0.016687201251212203,6.671606147263944,-0.03397045581101361,0.0034621142819862972,-0.01924501619611415,20.468200208507323,-5.5173604953423725,-40.40850432537104,1013.1629918524651
9.4,-0.2342235674467898,0.2290931483924289,7.00898671898218,-0.05226951069104138,0.006230324107130392,0.0015399409820805975,19.22735002723562,-5.781852559271575,-39.85103341151579,1013.1524379306636
9.42,-0.15584171730914104,0.37501177874366615,7.215954488041397,-0.04835034203161966,0.018126686616489154,-0.020437720602395702,19.848399191644752,-4.890298665123047,-40.37510953512107,1013.127529828035
9.44,-0.053065925997924195,0.2890342774725188,7.713704106507904,-0.03213355469867219,0.043003360770109314,-0.020260621659784362,20.547761205747904,-4.8827022095532815,-39.107189625689344,1013.1753812924276
9.46,0.060884973532241767,0.07395746705280759,8.392537825107176,0.009844049954331482,0.05549871546923912,-0.03152288069072971,20.275216755467394,-4.149603620785841,-39.5565868356004,1013.1006237712611
9.48,-0.026135944243128664,0.2716959464805155,9.156806006051756,-0.03924161851866663,0.0302768079344196,-0.01757805598123988,19.345452473806006,-5.334169184177352,-40.33917493942057,1013.1462726968995
9.5,0.03966889831913059,0.24699486890385275,9.759111227417362,0.015397137861106506,0.05072961511228463,-0.013640026111719052,20.305371077898098,-4.851949705188365,-39.74370250328439,1013.1425960309089
9.52,0.3152507451406751,0.4288348976768599,10.71564739140468,-0.025428928866519998,0.007796766683171183,-0.03564570474686904,18.931249701959707,-4.843643710362599,-39.87115213936172,1013.1577635775575
9.54,0.2116370404537566,0.015706142686179786,11.083970288383748,0.028433146869657602,0.048049609685605475,-0.022343182343487252,19.888588912121396,-5.126918780562766,-40.25831238098737,1013.165833236156
9.56,0.14338562467509716,0.05439447692919524,11.864592177140402,0.06572901184860898,0.05169141621024437,-0.03184772233571605,20.568978384700024,-4.627833205625162,-39.620917891385915,1013.1769352961652
9.58,0.34373822505401386,0.1902172323618981,12.732634835495414,0.05198976676444681,0.021189967211332462,0.026621618169724148,20.00919710778566,-4.612385406574643,-39.80534730444779,1013.1399519025329
9.6,0.3411713565149374,-0.010434022958327314,12.696631510279248,0.05096532738555346,0.0517813896415497,-0.02081574572413545,19.750531225019028,-4.83629445240123,-39.89215064305702,1013.1657316467466
9.62,0.11871474381845051,-0.07068138369649773,13.019062361275736,0.03869234704535201,-0.014485242972254323,0.012309113316166121,20.444673126886176,-5.127819852523897,-40.020959855621165,1013.1577163677576
9.64,0.254609003847492,-0.17915440680236452,12.770589778912043,0.049735306546205456,-0.005020257423221332,-0.022008987665474142,20.487375907543292,-5.178765054277267,-39.78447275370017,1013.1193692124963
9.66,0.25053760221856247,-0.2092417496733877,12.61159772169754,0.040200096315234045,-0.022005459511572338,-0.012340380770179135,20.655019846433476,-5.683876949398529,-39.885306169253774,1013.1914108051087
9.68,0.1486161389589683,-0.2008778182781927,12.113022249168484,0.022806129980162692,-0.03387715283630225,-0.043313839942945714,20.437171214223195,-5.402958889308846,-39.97045333348749,1013.1244244974552
9.7,0.10158815216015656,-0.37848217219937874,11.547794619702819,0.023591750305126738,-0.04273729307884198,-0.025121791724856277,20.540687396968572,-5.311003761950844,-40.32050795799378,1013.1613899454462
9.72,-0.17723658115569446,-0.20992732483383678,10.79745129854522,0.022373850846762643,-0.044346723694223156,-0.011199571439730847,20.366454278718766,-5.561985881214717,-39.15311687961876,1013.1605991988839
9.74,-0.07659244395042278,-0.4165254559711242,10.250544904536547,-0.009077679692397568,-0.03264656019644989,0.0171407040707691,20.132764324558234,-4.780038016656168,-40.52520997167427,1013.1581127356466
9.76,-0.2059525915179066,-0.21033558519547307,9.30626972092923,-0.022392298091908798,-0.022051010340229025,-0.00925128656504836,20.044754499881908,-4.401686065506495,-39.78618189056013,1013.1425084623567
9.78,-0.27892450004294067,-0.17396609922945833,8.80546412739303,-0.04561109638607656,-0.04653382918449604,0.014925927428886123,19.8813701404513,-5.454031216164575,-40.16012037115072,1013.1687450530228
9.8,-0.18405248780293965,-0.19008329243095504,8.209437293789444,-0.02157476209284612,-0.024144528275314436,0.0010588771582089804,19.393815853470137,-4.858279282127682,-39.12022636527535,1013.1207926505211
9.82,-0.14660844648361904,-0.05926506298694171,7.5534399827582295,-0.02761919689944806,-0.04590653841277038,0.021831490889713756,19.522344245590094,-5.517055569764855,-40.45174126861192,1013.1504834242265
9.84,-0.12001996722674771,-0.04421180062236847,7.052581532568598,-0.04060814373857046,-0.00596985552372932,-0.010815917828135447,19.858992759032397,-5.152461085469581,-40.36763163088017,1013.140322506469
9.86,-0.15408127775231775,-0.015222826644141846,6.931233084710244,-0.02981095268186103,-0.024608896205826486,0.03928886838173459,20.120726079801216,-5.345164789588888,-40.48490903163091,1013.1378540411587
9.88,-0.2646976605203891,0.1247135358813596,6.769618856383225,-0.04814398367979902,0.0249527246982285,-0.017070415111976003,20.720406299002132,-4.699052175696779,-39.83826747452469,1013.1597749557491
9.9,-0.170671976229397,0.10774574891055536,7.097162519934313,-0.03971260706744251,0.05966366726661227,-0.02150957657145232,19.979101386062244,-5.339394086921089,-40.686525329784324,1013.1725495708544
9.92,-0.06854123706845724,0.2947871329821894,7.002305310861688,-0.03613964776234948,0.024349661989522032,-0.029174854737077777,20.501738145438832,-4.494169793146677,-40.239264247378884,1013.1439348847632
9.94,-0.06326033290859676,0.1753673067497628,7.706017576996105,-0.036058155684799136,-0.007402438445078104,0.04287286713944684,20.53965782821606,-5.1228603868311,-41.07618291142714,1013.1662136217985
9.96,0.01227997235442028,0.371196645085698,8.066117178426286,-0.034704120267678176,0.03285387533729702,0.013882286781071927,19.884276601155605,-5.324801854797416,-39.879789322935956,1013.1513948133089
9.98,0.15621059181142555,0.17262408572108884,8.839671213971345,0.03184855795759532,0.07306666074221758,-0.007938225058192454,20.297345105685093,-5.626652631172582,-40.25010742937813,1013.1323453558152
